"Time (s),""Acceleration x (m/s^2)"",""Acceleration y (m/s^2)"",""Acceleration z (m/s^2)"""
9.974458000E-2,1.556231081E-1,1.077390760E-1,1.005385113E1
1.017665070E-1,1.484405100E-1,1.077390760E-1,1.007300472E1
1.037886950E-1,1.556231081E-1,1.029506698E-1,1.005145741E1
1.058041630E-1,1.436520964E-1,1.029506698E-1,1.002751541E1
1.078127570E-1,1.460463107E-1,1.101332754E-1,1.000836182E1
1.098213510E-1,1.460463107E-1,1.077390760E-1,9.991601944E0
1.118298930E-1,1.460463107E-1,1.077390760E-1,1.002990913E1
1.138384340E-1,1.460463107E-1,1.077390760E-1,1.006582260E1
1.158469760E-1,1.436520964E-1,1.268926859E-1,1.008018780E1
1.178555180E-1,1.580173075E-1,1.149216816E-1,1.006103420E1
1.198640590E-1,1.460463107E-1,9.097966552E-2,1.007061100E1
1.218726010E-1,1.532289088E-1,1.101332754E-1,1.004906273E1
1.238811430E-1,1.604115069E-1,1.149216816E-1,1.008497620E1
1.258896840E-1,1.388636976E-1,9.337386489E-2,1.008497620E1
1.278982260E-1,1.628057212E-1,9.576806426E-2,1.007779312E1
1.299067680E-1,1.532289088E-1,9.576806426E-2,1.006821632E1
1.319153090E-1,1.412578970E-1,1.029506698E-1,1.007061100E1
1.339238510E-1,1.388636976E-1,1.101332754E-1,1.006103420E1
1.359323930E-1,1.436520964E-1,1.077390760E-1,1.006582260E1
1.379409340E-1,1.460463107E-1,9.576806426E-2,1.009934139E1
1.399494760E-1,1.604115069E-1,9.337386489E-2,1.009694672E1
1.419580180E-1,1.508347094E-1,1.077390760E-1,1.007061100E1
1.439665590E-1,1.292868853E-1,1.173158810E-1,1.004188061E1
1.459751010E-1,1.460463107E-1,1.029506698E-1,1.003948593E1
1.479836430E-1,1.436520964E-1,9.576806426E-2,1.006821632E1
1.499921840E-1,1.532289088E-1,9.576806426E-2,1.011610031E1
1.520007260E-1,1.484405100E-1,1.149216816E-1,1.012328339E1
1.540092680E-1,1.484405100E-1,8.858546615E-2,1.008976460E1
1.560178090E-1,1.651999205E-1,1.005564705E-1,1.008736992E1
1.580263510E-1,1.316810995E-1,1.125274822E-1,1.005145741E1
1.600348930E-1,1.436520964E-1,1.005564705E-1,1.004427433E1
1.620434340E-1,1.412578970E-1,9.816227108E-2,1.008258152E1
1.640519760E-1,1.532289088E-1,9.337386489E-2,1.008018780E1
1.660605180E-1,1.580173075E-1,9.337386489E-2,1.006821632E1
1.680690590E-1,1.412578970E-1,1.053448766E-1,1.005624580E1
1.700776010E-1,1.436520964E-1,9.097966552E-2,1.003230381E1
1.720861430E-1,1.508347094E-1,1.005564705E-1,1.005624580E1
1.740946840E-1,1.604115069E-1,1.053448766E-1,1.007300472E1
1.761032260E-1,1.484405100E-1,1.005564705E-1,1.007779312E1
1.781117680E-1,1.316810995E-1,1.005564705E-1,1.002751541E1
1.801203090E-1,1.651999205E-1,9.576806426E-2,1.001075554E1
1.821288510E-1,1.508347094E-1,9.576806426E-2,9.986813545E0
1.841373930E-1,1.604115069E-1,1.005564705E-1,1.000357342E1
1.861459860E-1,1.460463107E-1,1.053448766E-1,9.993996620E0
1.881545800E-1,1.484405100E-1,1.005564705E-1,9.998785019E0
1.901631740E-1,1.556231081E-1,9.337386489E-2,9.996390343E0
1.921717680E-1,1.340752989E-1,9.097966552E-2,9.972448349E0
1.941803610E-1,1.340752989E-1,9.337386489E-2,9.955689430E0
1.961889550E-1,1.436520964E-1,1.101332754E-1,9.972448349E0
1.981975490E-1,1.604115069E-1,1.005564705E-1,9.974843025E0
2.002061430E-1,1.604115069E-1,9.337386489E-2,9.965266228E0
2.022147360E-1,1.580173075E-1,9.337386489E-2,9.950901031E0
2.042233300E-1,1.484405100E-1,1.101332754E-1,9.929352760E0
2.062319240E-1,1.532289088E-1,1.077390760E-1,9.926959038E0
2.082405180E-1,1.436520964E-1,9.576806426E-2,9.917382240E0
2.102491110E-1,1.532289088E-1,9.097966552E-2,9.914987564E0
2.122577050E-1,1.532289088E-1,8.858546615E-2,9.914987564E0
2.142662990E-1,1.651999205E-1,7.900865376E-2,9.919775963E0
2.162748930E-1,1.436520964E-1,9.337386489E-2,9.883863449E0
2.182834860E-1,1.556231081E-1,9.576806426E-2,9.876680374E0
2.202920800E-1,1.484405100E-1,1.029506698E-1,9.874286652E0
2.223006740E-1,1.651999205E-1,1.005564705E-1,9.867103577E0
2.243092680E-1,1.532289088E-1,9.097966552E-2,9.876680374E0
2.263178610E-1,1.580173075E-1,9.337386489E-2,9.862315178E0
2.283264550E-1,1.508347094E-1,9.816227108E-2,9.855133057E0
2.303350490E-1,1.508347094E-1,1.029506698E-1,9.840767860E0
2.323436430E-1,1.484405100E-1,9.816227108E-2,9.840767860E0
2.343522360E-1,1.532289088E-1,1.005564705E-1,9.845556259E0
2.363608300E-1,1.604115069E-1,9.576806426E-2,9.840767860E0
2.383694240E-1,1.628057212E-1,1.077390760E-1,9.833584785E0
2.403780180E-1,1.532289088E-1,9.097966552E-2,9.818920135E0
2.423866110E-1,1.412578970E-1,1.029506698E-1,9.806949615E0
2.443952050E-1,1.651999205E-1,9.576806426E-2,9.811738014E0
2.464037990E-1,1.484405100E-1,9.816227108E-2,9.826402664E0
2.484123930E-1,1.580173075E-1,9.816227108E-2,9.831191063E0
2.504209860E-1,1.436520964E-1,9.576806426E-2,9.821314812E0
2.524295800E-1,1.436520964E-1,1.125274822E-1,9.826402664E0
2.544381740E-1,1.556231081E-1,1.197100878E-1,9.811738014E0
2.564467680E-1,1.556231081E-1,1.029506698E-1,9.794978142E0
2.584553610E-1,1.412578970E-1,9.816227108E-2,9.818920135E0
2.604639550E-1,1.580173075E-1,9.576806426E-2,9.821314812E0
2.624725490E-1,1.675941199E-1,1.029506698E-1,9.814131737E0
2.644811430E-1,1.604115069E-1,1.101332754E-1,9.806949615E0
2.664897360E-1,1.604115069E-1,1.077390760E-1,9.809343338E0
2.684983300E-1,1.532289088E-1,1.005564705E-1,9.802161217E0
2.705069240E-1,1.532289088E-1,9.576806426E-2,9.811738014E0
2.725155180E-1,1.508347094E-1,1.005564705E-1,9.814131737E0
2.745241110E-1,1.604115069E-1,1.221042871E-1,9.816526413E0
2.765327050E-1,1.508347094E-1,1.197100878E-1,9.802161217E0
2.785412990E-1,1.556231081E-1,1.029506698E-1,9.811738014E0
2.805498930E-1,1.532289088E-1,1.029506698E-1,9.818920135E0
2.825584860E-1,1.460463107E-1,1.053448766E-1,9.821314812E0
2.845670800E-1,1.532289088E-1,1.101332754E-1,9.831191063E0
2.865756740E-1,1.651999205E-1,1.077390760E-1,9.831191063E0
2.885842680E-1,1.532289088E-1,1.005564705E-1,9.823708534E0
2.905928610E-1,1.436520964E-1,1.053448766E-1,9.835979462E0
2.926014550E-1,1.412578970E-1,1.101332754E-1,9.847949982E0
2.946100490E-1,1.388636976E-1,9.816227108E-2,9.855133057E0
2.966186430E-1,1.412578970E-1,1.125274822E-1,9.867103577E0
2.986272360E-1,1.508347094E-1,9.816227108E-2,9.867103577E0
3.006358300E-1,1.556231081E-1,1.053448766E-1,9.871891975E0
3.026444240E-1,1.484405100E-1,1.029506698E-1,9.855133057E0
3.046530180E-1,1.412578970E-1,1.149216816E-1,9.874286652E0
3.066616110E-1,1.436520964E-1,1.077390760E-1,9.888651848E0
3.086702050E-1,1.412578970E-1,1.149216816E-1,9.910199165E0
3.106787990E-1,1.484405100E-1,1.053448766E-1,9.898228645E0
3.126873930E-1,1.364694983E-1,1.053448766E-1,9.903017044E0
3.146959860E-1,1.412578970E-1,1.125274822E-1,9.900622368E0
3.167045800E-1,1.484405100E-1,1.125274822E-1,9.900622368E0
3.187131740E-1,1.580173075E-1,1.101332754E-1,9.919775963E0
3.207217680E-1,1.484405100E-1,1.221042871E-1,9.965266228E0
3.227303610E-1,1.484405100E-1,1.101332754E-1,9.948506355E0
3.247389550E-1,1.484405100E-1,1.029506698E-1,9.950901031E0
3.267475490E-1,1.508347094E-1,1.101332754E-1,9.941324234E0
3.287561430E-1,1.364694983E-1,1.197100878E-1,9.962871552E0
3.307647360E-1,1.460463107E-1,1.173158810E-1,1.000117874E1
3.327733300E-1,1.388636976E-1,1.029506698E-1,1.000357342E1
3.347819240E-1,1.484405100E-1,9.576806426E-2,1.002272701E1
3.367905180E-1,1.532289088E-1,9.576806426E-2,1.001793861E1
3.387990590E-1,1.436520964E-1,1.292868853E-1,1.001075554E1
3.408076010E-1,1.412578970E-1,1.221042871E-1,1.000836182E1
3.428161430E-1,1.508347094E-1,1.053448766E-1,1.001075554E1
3.448246840E-1,1.580173075E-1,1.077390760E-1,1.004188061E1
3.468332260E-1,1.484405100E-1,1.077390760E-1,1.004906273E1
3.488417680E-1,1.316810995E-1,1.149216816E-1,1.003469753E1
3.508503090E-1,1.436520964E-1,1.101332754E-1,1.003948593E1
3.528588510E-1,1.604115069E-1,1.005564705E-1,1.002512074E1
3.548673930E-1,1.532289088E-1,1.005564705E-1,1.005385113E1
3.568759340E-1,1.508347094E-1,1.005564705E-1,1.007061100E1
3.588844760E-1,1.364694983E-1,1.005564705E-1,1.009694672E1
3.608930180E-1,1.628057212E-1,1.125274822E-1,1.009215832E1
3.629015590E-1,1.556231081E-1,1.053448766E-1,1.009215832E1
3.649101010E-1,1.604115069E-1,1.101332754E-1,1.011131191E1
3.669186430E-1,1.508347094E-1,1.125274822E-1,1.010652351E1
3.689271840E-1,1.556231081E-1,1.029506698E-1,1.012328339E1
3.709357260E-1,1.508347094E-1,1.029506698E-1,1.010891819E1
3.729442680E-1,1.508347094E-1,1.101332754E-1,1.007779312E1
3.749528090E-1,1.508347094E-1,1.029506698E-1,1.006582260E1
3.769613510E-1,1.268926859E-1,1.029506698E-1,1.007061100E1
3.789698930E-1,1.508347094E-1,9.097966552E-2,1.008258152E1
3.809784340E-1,1.556231081E-1,9.097966552E-2,1.008497620E1
3.829869760E-1,1.364694983E-1,1.005564705E-1,1.011131191E1
3.849955180E-1,1.388636976E-1,9.097966552E-2,1.011131191E1
3.870040590E-1,1.364694983E-1,1.005564705E-1,1.010652351E1
3.890126010E-1,1.556231081E-1,1.077390760E-1,1.008258152E1
3.910211430E-1,1.460463107E-1,1.077390760E-1,1.009694672E1
3.930296840E-1,1.508347094E-1,9.816227108E-2,1.010891819E1
3.950382260E-1,1.604115069E-1,1.101332754E-1,1.009694672E1
3.970467680E-1,1.460463107E-1,8.619125932E-2,1.007300472E1
3.990553090E-1,1.316810995E-1,9.337386489E-2,1.006821632E1
4.010638510E-1,1.340752989E-1,1.053448766E-1,1.006582260E1
4.030723930E-1,1.580173075E-1,8.379705995E-2,1.005624580E1
4.050809340E-1,1.316810995E-1,1.029506698E-1,1.005624580E1
4.070894760E-1,1.412578970E-1,9.816227108E-2,1.005624580E1
4.090980180E-1,1.316810995E-1,9.816227108E-2,1.004666901E1
4.111065590E-1,1.244984865E-1,1.029506698E-1,1.001793861E1
4.131151530E-1,1.436520964E-1,1.029506698E-1,1.001793861E1
4.151237470E-1,1.292868853E-1,1.029506698E-1,1.001075554E1
4.171323410E-1,1.484405100E-1,1.005564705E-1,1.001793861E1
4.191409340E-1,1.388636976E-1,8.858546615E-2,1.002751541E1
4.211495280E-1,1.460463107E-1,8.858546615E-2,1.000117874E1
4.231581220E-1,1.604115069E-1,9.337386489E-2,9.993996620E0
4.251634860E-1,1.651999205E-1,1.005564705E-1,9.965266228E0
4.271688510E-1,1.508347094E-1,9.816227108E-2,9.972448349E0
4.291746320E-1,1.460463107E-1,9.816227108E-2,9.989208221E0
4.311809340E-1,1.484405100E-1,9.576806426E-2,9.996390343E0
4.331883820E-1,1.508347094E-1,8.858546615E-2,9.955689430E0
4.351969240E-1,1.412578970E-1,9.337386489E-2,9.967659950E0
4.372090590E-1,1.484405100E-1,1.005564705E-1,9.938929558E0
4.392220800E-1,1.580173075E-1,7.661445439E-2,9.934141159E0
4.412351530E-1,1.580173075E-1,9.337386489E-2,9.948506355E0
4.432450490E-1,1.699883193E-1,8.858546615E-2,9.936535835E0
4.452536430E-1,1.484405100E-1,9.097966552E-2,9.926959038E0
4.472622360E-1,1.580173075E-1,9.576806426E-2,9.912593842E0
4.492707780E-1,1.580173075E-1,8.140286058E-2,9.905410767E0
4.512793200E-1,1.484405100E-1,9.097966552E-2,9.898228645E0
4.532878610E-1,1.651999205E-1,1.053448766E-1,9.914987564E0
4.552964030E-1,1.532289088E-1,8.619125932E-2,9.907805443E0
4.573049450E-1,1.532289088E-1,9.816227108E-2,9.886257172E0
4.593134860E-1,1.604115069E-1,8.140286058E-2,9.859921455E0
4.613220280E-1,1.556231081E-1,8.619125932E-2,9.879075050E0
4.633305700E-1,1.604115069E-1,1.053448766E-1,9.871891975E0
4.653391110E-1,1.580173075E-1,8.858546615E-2,9.879075050E0
4.673476530E-1,1.460463107E-1,9.337386489E-2,9.874286652E0
4.693561950E-1,1.388636976E-1,9.097966552E-2,9.847949982E0
4.713647360E-1,1.436520964E-1,9.097966552E-2,9.835979462E0
4.733732780E-1,1.508347094E-1,1.029506698E-1,9.831191063E0
4.753818200E-1,1.604115069E-1,1.077390760E-1,9.838373184E0
4.773903610E-1,1.436520964E-1,1.005564705E-1,9.838373184E0
4.793989030E-1,1.532289088E-1,9.816227108E-2,9.831191063E0
4.814074450E-1,1.412578970E-1,1.005564705E-1,9.821314812E0
4.834159860E-1,1.436520964E-1,9.097966552E-2,9.806949615E0
4.854245280E-1,1.388636976E-1,9.576806426E-2,9.799766541E0
4.874330700E-1,1.580173075E-1,1.029506698E-1,9.816526413E0
4.894416110E-1,1.532289088E-1,9.816227108E-2,9.828796387E0
4.914501530E-1,1.508347094E-1,9.097966552E-2,9.823708534E0
4.934586950E-1,1.412578970E-1,1.053448766E-1,9.814131737E0
4.954672360E-1,1.532289088E-1,1.029506698E-1,9.797372818E0
4.974757780E-1,1.340752989E-1,1.029506698E-1,9.804554939E0
4.994843200E-1,1.532289088E-1,1.077390760E-1,9.804554939E0
5.014928610E-1,1.532289088E-1,1.077390760E-1,9.818920135E0
5.035014030E-1,1.460463107E-1,1.101332754E-1,9.818920135E0
5.055099450E-1,1.436520964E-1,1.029506698E-1,9.806949615E0
5.075184860E-1,1.556231081E-1,1.053448766E-1,9.816526413E0
5.095270280E-1,1.460463107E-1,9.816227108E-2,9.823708534E0
5.115355700E-1,1.580173075E-1,1.077390760E-1,9.821314812E0
5.135441110E-1,1.580173075E-1,1.221042871E-1,9.833584785E0
5.155526530E-1,1.436520964E-1,9.816227108E-2,9.843161583E0
5.175611950E-1,1.412578970E-1,1.005564705E-1,9.840767860E0
5.195697360E-1,1.412578970E-1,1.077390760E-1,9.840767860E0
5.215783300E-1,1.556231081E-1,1.077390760E-1,9.843161583E0
5.235869240E-1,1.532289088E-1,9.816227108E-2,9.835979462E0
5.255955180E-1,1.436520964E-1,1.101332754E-1,9.855133057E0
5.276041110E-1,1.436520964E-1,1.053448766E-1,9.859921455E0
5.296127050E-1,1.436520964E-1,1.077390760E-1,9.862315178E0
5.316212990E-1,1.460463107E-1,1.197100878E-1,9.867103577E0
5.336298930E-1,1.460463107E-1,1.101332754E-1,9.867103577E0
5.356384860E-1,1.580173075E-1,1.244984865E-1,9.864709854E0
5.376470800E-1,1.532289088E-1,1.029506698E-1,9.893440247E0
5.396556740E-1,1.484405100E-1,1.197100878E-1,9.888651848E0
5.416642680E-1,1.412578970E-1,1.077390760E-1,9.888651848E0
5.436728610E-1,1.436520964E-1,1.316810995E-1,9.895833969E0
5.456814550E-1,1.412578970E-1,1.077390760E-1,9.900622368E0
5.476900490E-1,1.460463107E-1,1.244984865E-1,9.917382240E0
5.496986430E-1,1.436520964E-1,1.125274822E-1,9.924564362E0
5.517072360E-1,1.460463107E-1,9.097966552E-2,9.950901031E0
5.537158300E-1,1.556231081E-1,1.005564705E-1,9.953294754E0
5.557244240E-1,1.244984865E-1,1.149216816E-1,9.948506355E0
5.577330180E-1,1.316810995E-1,1.221042871E-1,9.948506355E0
5.597416110E-1,1.388636976E-1,1.173158810E-1,9.929352760E0
5.617502050E-1,1.388636976E-1,1.125274822E-1,9.943717957E0
5.637587990E-1,1.316810995E-1,1.197100878E-1,9.977236748E0
5.657673930E-1,1.388636976E-1,1.221042871E-1,9.984419823E0
5.677759860E-1,1.460463107E-1,1.197100878E-1,9.998785019E0
5.697845800E-1,1.484405100E-1,1.029506698E-1,1.000357342E1
5.717931740E-1,1.340752989E-1,1.077390760E-1,9.993996620E0
5.738017680E-1,1.412578970E-1,9.576806426E-2,9.948506355E0
5.758103610E-1,1.316810995E-1,1.029506698E-1,1.005385113E1
5.778189550E-1,1.340752989E-1,1.029506698E-1,1.002033234E1
5.798275490E-1,1.244984865E-1,9.816227108E-2,1.000357342E1
5.818361430E-1,1.268926859E-1,9.816227108E-2,9.914987564E0
5.838447360E-1,1.484405100E-1,1.053448766E-1,9.905410767E0
5.858533300E-1,1.436520964E-1,1.029506698E-1,9.972448349E0
5.878619240E-1,1.436520964E-1,1.125274822E-1,9.936535835E0
5.898705180E-1,1.388636976E-1,1.125274822E-1,9.953294754E0
5.918791110E-1,1.484405100E-1,9.097966552E-2,9.958083153E0
5.938877050E-1,1.436520964E-1,1.077390760E-1,9.934141159E0
5.958962990E-1,1.580173075E-1,1.053448766E-1,9.955689430E0
5.979048930E-1,1.532289088E-1,9.816227108E-2,9.943717957E0
5.999134860E-1,1.508347094E-1,9.576806426E-2,9.962871552E0
6.019220800E-1,1.508347094E-1,8.858546615E-2,9.953294754E0
6.039306740E-1,1.460463107E-1,1.101332754E-1,9.934141159E0
6.059392680E-1,1.532289088E-1,9.337386489E-2,9.934141159E0
6.079478610E-1,1.340752989E-1,9.576806426E-2,9.926959038E0
6.099564550E-1,1.460463107E-1,8.140286058E-2,9.941324234E0
6.119650490E-1,1.604115069E-1,8.379705995E-2,9.967659950E0
6.139736430E-1,1.651999205E-1,9.097966552E-2,9.977236748E0
6.159822360E-1,1.412578970E-1,9.097966552E-2,9.965266228E0
6.179908300E-1,1.460463107E-1,1.029506698E-1,9.946112633E0
6.199994240E-1,1.556231081E-1,1.077390760E-1,9.946112633E0
6.220080180E-1,1.604115069E-1,9.097966552E-2,9.960477829E0
6.240166110E-1,1.532289088E-1,1.125274822E-1,9.953294754E0
6.260252050E-1,1.580173075E-1,7.182604820E-2,9.979631424E0
6.280337990E-1,1.508347094E-1,8.619125932E-2,9.958083153E0
6.300423930E-1,1.556231081E-1,9.816227108E-2,9.950901031E0
6.320509860E-1,1.580173075E-1,1.005564705E-1,9.943717957E0
6.340595800E-1,1.460463107E-1,9.816227108E-2,9.965266228E0
6.360681740E-1,1.460463107E-1,7.900865376E-2,9.960477829E0
6.380767680E-1,1.388636976E-1,9.816227108E-2,9.948506355E0
6.400853610E-1,1.460463107E-1,9.816227108E-2,9.943717957E0
6.420939550E-1,1.412578970E-1,9.337386489E-2,9.946112633E0
6.441025490E-1,1.340752989E-1,9.576806426E-2,9.943717957E0
6.461111430E-1,1.388636976E-1,9.097966552E-2,9.972448349E0
6.481197360E-1,1.436520964E-1,9.576806426E-2,9.958083153E0
6.501283300E-1,1.436520964E-1,8.379705995E-2,9.948506355E0
6.521369240E-1,1.364694983E-1,1.101332754E-1,9.948506355E0
6.541455180E-1,1.412578970E-1,9.576806426E-2,9.931747437E0
6.561541110E-1,1.316810995E-1,1.005564705E-1,9.922170639E0
6.581627050E-1,1.460463107E-1,8.619125932E-2,9.943717957E0
6.601712990E-1,1.292868853E-1,9.337386489E-2,9.948506355E0
6.621798930E-1,1.460463107E-1,1.077390760E-1,9.950901031E0
6.641884860E-1,1.388636976E-1,9.816227108E-2,9.931747437E0
6.661970800E-1,1.364694983E-1,1.029506698E-1,9.934141159E0
6.682056740E-1,1.508347094E-1,9.816227108E-2,9.929352760E0
6.702142680E-1,1.412578970E-1,1.053448766E-1,9.946112633E0
6.722228610E-1,1.604115069E-1,9.816227108E-2,9.965266228E0
6.742314030E-1,1.484405100E-1,9.576806426E-2,9.965266228E0
6.762399450E-1,1.508347094E-1,1.077390760E-1,9.962871552E0
6.782484860E-1,1.412578970E-1,1.053448766E-1,9.943717957E0
6.802570280E-1,1.460463107E-1,8.858546615E-2,9.941324234E0
6.822655700E-1,1.604115069E-1,1.101332754E-1,9.960477829E0
6.842741110E-1,1.508347094E-1,1.149216816E-1,9.986813545E0
6.862826530E-1,1.508347094E-1,9.097966552E-2,9.979631424E0
6.882911950E-1,1.508347094E-1,1.077390760E-1,9.960477829E0
6.902997360E-1,1.508347094E-1,1.101332754E-1,9.982025146E0
6.923082780E-1,1.580173075E-1,1.029506698E-1,9.950901031E0
6.943168200E-1,1.388636976E-1,1.005564705E-1,9.965266228E0
6.963253610E-1,1.460463107E-1,1.077390760E-1,9.974843025E0
6.983339030E-1,1.412578970E-1,1.149216816E-1,9.974843025E0
7.003424450E-1,1.532289088E-1,9.576806426E-2,9.967659950E0
7.023509860E-1,1.460463107E-1,1.221042871E-1,9.946112633E0
7.043595280E-1,1.316810995E-1,1.125274822E-1,9.917382240E0
7.063680700E-1,1.532289088E-1,9.816227108E-2,9.914987564E0
7.083766110E-1,1.532289088E-1,1.173158810E-1,9.960477829E0
7.103851530E-1,1.364694983E-1,1.077390760E-1,9.960477829E0
7.123936950E-1,1.436520964E-1,1.149216816E-1,9.965266228E0
7.144022360E-1,1.460463107E-1,9.576806426E-2,9.955689430E0
7.164107780E-1,1.556231081E-1,1.173158810E-1,9.946112633E0
7.184193200E-1,1.556231081E-1,1.149216816E-1,9.941324234E0
7.204278610E-1,1.484405100E-1,1.221042871E-1,9.941324234E0
7.224364030E-1,1.556231081E-1,1.149216816E-1,9.950901031E0
7.244449450E-1,1.460463107E-1,1.029506698E-1,9.929352760E0
7.264534860E-1,1.508347094E-1,1.077390760E-1,9.946112633E0
7.284620280E-1,1.436520964E-1,1.197100878E-1,9.924564362E0
7.304705700E-1,1.532289088E-1,1.077390760E-1,9.934141159E0
7.324791110E-1,1.532289088E-1,1.125274822E-1,9.955689430E0
7.344876530E-1,1.580173075E-1,1.149216816E-1,9.958083153E0
7.364961950E-1,1.436520964E-1,1.077390760E-1,9.960477829E0
7.385047360E-1,1.436520964E-1,1.053448766E-1,9.936535835E0
7.405132780E-1,1.508347094E-1,1.077390760E-1,9.936535835E0
7.425218200E-1,1.532289088E-1,1.101332754E-1,9.943717957E0
7.445303610E-1,1.436520964E-1,1.101332754E-1,9.950901031E0
7.465389550E-1,1.388636976E-1,1.029506698E-1,9.977236748E0
7.485475490E-1,1.436520964E-1,1.197100878E-1,9.953294754E0
7.505561430E-1,1.316810995E-1,9.337386489E-2,9.950901031E0
7.525647360E-1,1.364694983E-1,1.101332754E-1,9.946112633E0
7.545733300E-1,1.532289088E-1,1.125274822E-1,9.943717957E0
7.565819240E-1,1.532289088E-1,8.379705995E-2,9.958083153E0
7.585905180E-1,1.484405100E-1,1.005564705E-1,9.974843025E0
7.605991110E-1,1.388636976E-1,1.173158810E-1,9.970054626E0
7.626077050E-1,1.340752989E-1,9.816227108E-2,9.967659950E0
7.646162990E-1,1.532289088E-1,1.077390760E-1,9.943717957E0
7.666248930E-1,1.412578970E-1,1.101332754E-1,9.970054626E0
7.686334860E-1,1.460463107E-1,8.858546615E-2,9.970054626E0
7.706420800E-1,1.460463107E-1,1.029506698E-1,9.982025146E0
7.726506740E-1,1.460463107E-1,1.101332754E-1,9.965266228E0
7.746592680E-1,1.436520964E-1,1.053448766E-1,9.941324234E0
7.766678610E-1,1.460463107E-1,1.053448766E-1,9.926959038E0
7.786764550E-1,1.460463107E-1,1.244984865E-1,9.929352760E0
7.806850490E-1,1.364694983E-1,9.576806426E-2,9.941324234E0
7.826936430E-1,1.436520964E-1,1.029506698E-1,9.943717957E0
7.847022360E-1,1.484405100E-1,9.097966552E-2,9.953294754E0
7.867108300E-1,1.388636976E-1,1.125274822E-1,9.948506355E0
7.887194240E-1,1.364694983E-1,9.576806426E-2,9.943717957E0
7.907280180E-1,1.460463107E-1,1.005564705E-1,9.929352760E0
7.927366110E-1,1.484405100E-1,1.077390760E-1,9.953294754E0
7.947452050E-1,1.460463107E-1,1.029506698E-1,9.943717957E0
7.967537990E-1,1.460463107E-1,1.029506698E-1,9.950901031E0
7.987623930E-1,1.484405100E-1,1.077390760E-1,9.946112633E0
8.007709860E-1,1.412578970E-1,1.005564705E-1,9.941324234E0
8.027795800E-1,1.580173075E-1,1.029506698E-1,9.929352760E0
8.047881740E-1,1.580173075E-1,1.053448766E-1,9.948506355E0
8.067967680E-1,1.580173075E-1,9.097966552E-2,9.953294754E0
8.088053610E-1,1.532289088E-1,9.576806426E-2,9.965266228E0
8.108139550E-1,1.532289088E-1,1.029506698E-1,9.958083153E0
8.128225490E-1,1.484405100E-1,1.077390760E-1,9.948506355E0
8.148311430E-1,1.508347094E-1,8.379705995E-2,9.941324234E0
8.168397360E-1,1.699883193E-1,1.005564705E-1,9.979631424E0
8.188483300E-1,1.532289088E-1,9.097966552E-2,9.958083153E0
8.208569240E-1,1.604115069E-1,8.619125932E-2,9.962871552E0
8.228655180E-1,1.532289088E-1,1.053448766E-1,9.967659950E0
8.248741110E-1,1.412578970E-1,1.053448766E-1,9.967659950E0
8.268827050E-1,1.508347094E-1,1.053448766E-1,9.953294754E0
8.288912990E-1,1.532289088E-1,9.816227108E-2,9.967659950E0
8.308998930E-1,1.436520964E-1,1.077390760E-1,9.970054626E0
8.329084860E-1,1.532289088E-1,1.029506698E-1,9.979631424E0
8.349170800E-1,1.556231081E-1,8.858546615E-2,9.955689430E0
8.369256740E-1,1.460463107E-1,1.029506698E-1,9.953294754E0
8.389342680E-1,1.316810995E-1,9.337386489E-2,9.943717957E0
8.409428610E-1,1.436520964E-1,1.005564705E-1,9.950901031E0
8.429514550E-1,1.532289088E-1,9.816227108E-2,9.950901031E0
8.449600490E-1,1.508347094E-1,9.337386489E-2,9.946112633E0
8.469686430E-1,1.556231081E-1,1.005564705E-1,9.955689430E0
8.489772360E-1,1.412578970E-1,9.576806426E-2,9.919775963E0
8.509858300E-1,1.460463107E-1,9.576806426E-2,9.934141159E0
8.529944240E-1,1.556231081E-1,9.816227108E-2,9.946112633E0
8.550030180E-1,1.532289088E-1,1.077390760E-1,9.955689430E0
8.570116110E-1,1.556231081E-1,1.005564705E-1,9.965266228E0
8.590202050E-1,1.484405100E-1,1.005564705E-1,9.967659950E0
8.610287990E-1,1.580173075E-1,1.149216816E-1,9.958083153E0
8.630373930E-1,1.436520964E-1,1.053448766E-1,9.953294754E0
8.650459860E-1,1.604115069E-1,1.053448766E-1,9.950901031E0
8.670545800E-1,1.532289088E-1,9.816227108E-2,9.967659950E0
8.690631740E-1,1.388636976E-1,1.125274822E-1,9.955689430E0
8.710717680E-1,1.532289088E-1,1.029506698E-1,9.958083153E0
8.730803610E-1,1.604115069E-1,9.576806426E-2,9.948506355E0
8.750889550E-1,1.580173075E-1,1.005564705E-1,9.946112633E0
8.770975490E-1,1.412578970E-1,1.244984865E-1,9.950901031E0
8.791061430E-1,1.628057212E-1,9.097966552E-2,9.967659950E0
8.811147360E-1,1.508347094E-1,1.077390760E-1,9.970054626E0
8.831233300E-1,1.628057212E-1,9.816227108E-2,9.950901031E0
8.851319240E-1,1.460463107E-1,9.816227108E-2,9.950901031E0
8.871405180E-1,1.436520964E-1,1.149216816E-1,9.946112633E0
8.891491110E-1,1.556231081E-1,1.005564705E-1,9.946112633E0
8.911577050E-1,1.604115069E-1,1.029506698E-1,9.955689430E0
8.931662990E-1,1.460463107E-1,1.029506698E-1,9.970054626E0
8.951748930E-1,1.484405100E-1,1.101332754E-1,9.962871552E0
8.971834860E-1,1.460463107E-1,1.053448766E-1,9.960477829E0
8.991920800E-1,1.532289088E-1,1.005564705E-1,9.950901031E0
9.012006740E-1,1.556231081E-1,1.149216816E-1,9.946112633E0
9.032092160E-1,1.556231081E-1,1.029506698E-1,9.965266228E0
9.052177570E-1,1.580173075E-1,1.173158810E-1,9.965266228E0
9.072262990E-1,1.508347094E-1,1.053448766E-1,9.946112633E0
9.092348410E-1,1.532289088E-1,9.816227108E-2,9.936535835E0
9.112433820E-1,1.508347094E-1,1.029506698E-1,9.931747437E0
9.132519240E-1,1.412578970E-1,9.337386489E-2,9.936535835E0
9.152604660E-1,1.508347094E-1,1.125274822E-1,9.950901031E0
9.172690070E-1,1.651999205E-1,1.125274822E-1,9.953294754E0
9.192775490E-1,1.604115069E-1,1.077390760E-1,9.958083153E0
9.212860910E-1,1.364694983E-1,1.005564705E-1,9.953294754E0
9.232946320E-1,1.484405100E-1,1.005564705E-1,9.941324234E0
9.253031740E-1,1.508347094E-1,1.125274822E-1,9.941324234E0
9.273117160E-1,1.364694983E-1,1.173158810E-1,9.943717957E0
9.293202570E-1,1.604115069E-1,1.053448766E-1,9.955689430E0
9.313287990E-1,1.699883193E-1,1.005564705E-1,9.941324234E0
9.333373410E-1,1.604115069E-1,1.101332754E-1,9.922170639E0
9.353458820E-1,1.580173075E-1,9.097966552E-2,9.922170639E0
9.373544240E-1,1.412578970E-1,1.125274822E-1,9.941324234E0
9.393629660E-1,1.340752989E-1,1.005564705E-1,9.943717957E0
9.413715070E-1,1.532289088E-1,1.053448766E-1,9.955689430E0
9.433800490E-1,1.508347094E-1,9.097966552E-2,9.946112633E0
9.453885910E-1,1.580173075E-1,9.576806426E-2,9.974843025E0
9.473971320E-1,1.484405100E-1,9.576806426E-2,9.950901031E0
9.494056740E-1,1.556231081E-1,1.029506698E-1,9.938929558E0
9.514142160E-1,1.484405100E-1,1.101332754E-1,9.941324234E0
9.534227570E-1,1.460463107E-1,1.077390760E-1,9.950901031E0
9.554312990E-1,1.460463107E-1,1.173158810E-1,9.953294754E0
9.574398410E-1,1.556231081E-1,9.337386489E-2,9.962871552E0
9.594483820E-1,1.436520964E-1,1.077390760E-1,9.950901031E0
9.614569240E-1,1.580173075E-1,1.053448766E-1,9.950901031E0
9.634654660E-1,1.436520964E-1,9.576806426E-2,9.953294754E0
9.654740070E-1,1.484405100E-1,8.858546615E-2,9.967659950E0
9.674825490E-1,1.484405100E-1,1.125274822E-1,9.974843025E0
9.694910910E-1,1.364694983E-1,9.576806426E-2,9.958083153E0
9.714996320E-1,1.484405100E-1,1.005564705E-1,9.948506355E0
9.735081740E-1,1.484405100E-1,1.005564705E-1,9.960477829E0
9.755167680E-1,1.508347094E-1,1.173158810E-1,9.958083153E0
9.775253610E-1,1.436520964E-1,1.125274822E-1,9.977236748E0
9.795339550E-1,1.604115069E-1,1.029506698E-1,9.989208221E0
9.815425490E-1,1.556231081E-1,1.125274822E-1,9.991601944E0
9.835511430E-1,1.484405100E-1,1.125274822E-1,9.955689430E0
9.855597360E-1,1.388636976E-1,1.101332754E-1,9.943717957E0
9.875683300E-1,1.484405100E-1,1.029506698E-1,9.936535835E0
9.895769240E-1,1.532289088E-1,1.005564705E-1,9.977236748E0
9.915855180E-1,1.508347094E-1,1.053448766E-1,9.965266228E0
9.935941110E-1,1.484405100E-1,9.576806426E-2,9.938929558E0
9.956027050E-1,1.508347094E-1,9.337386489E-2,9.938929558E0
9.976112990E-1,1.436520964E-1,1.029506698E-1,9.936535835E0
9.996198930E-1,1.460463107E-1,9.337386489E-2,9.934141159E0
1.001628486E0,1.580173075E-1,9.816227108E-2,9.948506355E0
1.003637080E0,1.532289088E-1,1.005564705E-1,9.965266228E0
1.005645674E0,1.532289088E-1,1.149216816E-1,9.965266228E0
1.007654268E0,1.604115069E-1,9.097966552E-2,9.955689430E0
1.009662861E0,1.556231081E-1,1.053448766E-1,9.946112633E0
1.011671455E0,1.628057212E-1,9.337386489E-2,9.953294754E0
1.013680049E0,1.604115069E-1,1.029506698E-1,9.958083153E0
1.015688643E0,1.556231081E-1,1.077390760E-1,9.948506355E0
1.017697236E0,1.388636976E-1,1.053448766E-1,9.953294754E0
1.019705830E0,1.604115069E-1,1.029506698E-1,9.936535835E0
1.021714424E0,1.484405100E-1,9.337386489E-2,9.955689430E0
1.023723018E0,1.604115069E-1,1.053448766E-1,9.962871552E0
1.025731611E0,1.651999205E-1,9.337386489E-2,9.960477829E0
1.027740205E0,1.484405100E-1,9.816227108E-2,9.955689430E0
1.029748799E0,1.532289088E-1,1.053448766E-1,9.962871552E0
1.031757393E0,1.532289088E-1,1.077390760E-1,9.958083153E0
1.033765986E0,1.460463107E-1,9.816227108E-2,9.946112633E0
1.035774580E0,1.484405100E-1,9.337386489E-2,9.941324234E0
1.037783174E0,1.508347094E-1,9.576806426E-2,9.934141159E0
1.039791768E0,1.388636976E-1,1.005564705E-1,9.955689430E0
1.041800361E0,1.532289088E-1,9.097966552E-2,9.953294754E0
1.043808955E0,1.436520964E-1,9.097966552E-2,9.934141159E0
1.045817549E0,1.532289088E-1,1.005564705E-1,9.931747437E0
1.047826143E0,1.364694983E-1,1.005564705E-1,9.946112633E0
1.049834736E0,1.508347094E-1,1.005564705E-1,9.972448349E0
1.051843330E0,1.508347094E-1,1.077390760E-1,9.965266228E0
1.053851924E0,1.580173075E-1,1.053448766E-1,9.967659950E0
1.055860518E0,1.484405100E-1,1.053448766E-1,9.943717957E0
1.057869111E0,1.532289088E-1,9.576806426E-2,9.938929558E0
1.059877705E0,1.484405100E-1,1.029506698E-1,9.953294754E0
1.061886299E0,1.604115069E-1,9.097966552E-2,9.953294754E0
1.063894893E0,1.388636976E-1,9.576806426E-2,9.958083153E0
1.065903486E0,1.412578970E-1,9.816227108E-2,9.965266228E0
1.067912080E0,1.532289088E-1,1.053448766E-1,9.960477829E0
1.069920674E0,1.580173075E-1,9.576806426E-2,9.941324234E0
1.071929268E0,1.436520964E-1,1.101332754E-1,9.965266228E0
1.073937861E0,1.604115069E-1,9.816227108E-2,9.960477829E0
1.075946455E0,1.604115069E-1,1.053448766E-1,9.970054626E0
1.077955049E0,1.508347094E-1,1.029506698E-1,9.953294754E0
1.079963643E0,1.604115069E-1,8.619125932E-2,9.946112633E0
1.081972236E0,1.556231081E-1,9.576806426E-2,9.955689430E0
1.083980830E0,1.484405100E-1,1.053448766E-1,9.953294754E0
1.085989424E0,1.532289088E-1,1.101332754E-1,9.962871552E0
1.087998018E0,1.508347094E-1,9.576806426E-2,9.965266228E0
1.090006611E0,1.460463107E-1,8.858546615E-2,9.948506355E0
1.092015205E0,1.556231081E-1,9.576806426E-2,9.943717957E0
1.094023799E0,1.556231081E-1,1.005564705E-1,9.936535835E0
1.096032393E0,1.388636976E-1,1.053448766E-1,9.936535835E0
1.098040986E0,1.508347094E-1,1.101332754E-1,9.953294754E0
1.100049580E0,1.508347094E-1,1.005564705E-1,9.960477829E0
1.102058174E0,1.580173075E-1,1.005564705E-1,9.946112633E0
1.104066768E0,1.628057212E-1,1.005564705E-1,9.950901031E0
1.106075361E0,1.436520964E-1,9.337386489E-2,9.936535835E0
1.108083955E0,1.484405100E-1,9.816227108E-2,9.953294754E0
1.110092549E0,1.699883193E-1,1.005564705E-1,9.970054626E0
1.112101143E0,1.604115069E-1,1.077390760E-1,9.958083153E0
1.114109736E0,1.412578970E-1,1.125274822E-1,9.950901031E0
1.116118330E0,1.460463107E-1,9.337386489E-2,9.948506355E0
1.118126924E0,1.484405100E-1,1.005564705E-1,9.931747437E0
1.120135518E0,1.340752989E-1,1.053448766E-1,9.941324234E0
1.122144111E0,1.723825186E-1,1.101332754E-1,9.958083153E0
1.124152705E0,1.556231081E-1,1.149216816E-1,9.979631424E0
1.126161299E0,1.556231081E-1,9.576806426E-2,9.972448349E0
1.128169893E0,1.532289088E-1,1.125274822E-1,9.946112633E0
1.130178486E0,1.484405100E-1,1.029506698E-1,9.938929558E0
1.132187080E0,1.699883193E-1,1.149216816E-1,9.946112633E0
1.134195622E0,1.556231081E-1,1.005564705E-1,9.962871552E0
1.136204163E0,1.604115069E-1,9.576806426E-2,9.960477829E0
1.138212705E0,1.460463107E-1,1.005564705E-1,9.958083153E0
1.140221247E0,1.388636976E-1,1.053448766E-1,9.967659950E0
1.142229788E0,1.436520964E-1,1.244984865E-1,9.941324234E0
1.144238330E0,1.604115069E-1,1.053448766E-1,9.955689430E0
1.146246872E0,1.604115069E-1,9.337386489E-2,9.958083153E0
1.148255413E0,1.316810995E-1,1.077390760E-1,9.960477829E0
1.150263955E0,1.580173075E-1,1.077390760E-1,9.950901031E0
1.152272497E0,1.436520964E-1,1.077390760E-1,9.934141159E0
1.154281038E0,1.556231081E-1,9.337386489E-2,9.946112633E0
1.156289580E0,1.484405100E-1,1.005564705E-1,9.931747437E0
1.158298122E0,1.460463107E-1,1.101332754E-1,9.953294754E0
1.160306663E0,1.508347094E-1,1.077390760E-1,9.970054626E0
1.162315205E0,1.508347094E-1,1.053448766E-1,9.965266228E0
1.164323747E0,1.580173075E-1,1.005564705E-1,9.943717957E0
1.166332288E0,1.484405100E-1,1.077390760E-1,9.941324234E0
1.168340830E0,1.436520964E-1,9.337386489E-2,9.926959038E0
1.170349372E0,1.699883193E-1,1.125274822E-1,9.941324234E0
1.172357913E0,1.651999205E-1,9.576806426E-2,9.962871552E0
1.174366455E0,1.628057212E-1,9.576806426E-2,9.965266228E0
1.176374997E0,1.556231081E-1,1.125274822E-1,9.970054626E0
1.178383538E0,1.580173075E-1,1.053448766E-1,9.958083153E0
1.180392080E0,1.604115069E-1,1.197100878E-1,9.958083153E0
1.182400622E0,1.556231081E-1,9.576806426E-2,9.948506355E0
1.184409163E0,1.556231081E-1,9.816227108E-2,9.962871552E0
1.186417705E0,1.508347094E-1,9.576806426E-2,9.962871552E0
1.188426247E0,1.364694983E-1,9.576806426E-2,9.941324234E0
1.190434788E0,1.484405100E-1,1.149216816E-1,9.934141159E0
1.192443330E0,1.580173075E-1,1.077390760E-1,9.931747437E0
1.194451872E0,1.556231081E-1,1.077390760E-1,9.948506355E0
1.196460413E0,1.388636976E-1,9.816227108E-2,9.970054626E0
1.198468955E0,1.580173075E-1,1.053448766E-1,9.960477829E0
1.200477497E0,1.436520964E-1,1.125274822E-1,9.958083153E0
1.202486038E0,1.460463107E-1,9.337386489E-2,9.946112633E0
1.204494580E0,1.460463107E-1,1.029506698E-1,9.950901031E0
1.206503174E0,1.436520964E-1,1.077390760E-1,9.950901031E0
1.208511768E0,1.580173075E-1,9.816227108E-2,9.972448349E0
1.210520361E0,1.604115069E-1,1.029506698E-1,9.965266228E0
1.212528955E0,1.556231081E-1,1.101332754E-1,9.950901031E0
1.214537549E0,1.484405100E-1,9.097966552E-2,9.934141159E0
1.216546143E0,1.508347094E-1,8.379705995E-2,9.943717957E0
1.218554736E0,1.412578970E-1,1.005564705E-1,9.958083153E0
1.220563330E0,1.484405100E-1,1.125274822E-1,9.970054626E0
1.222571924E0,1.532289088E-1,1.053448766E-1,9.972448349E0
1.224580518E0,1.364694983E-1,9.576806426E-2,9.950901031E0
1.226589111E0,1.580173075E-1,1.053448766E-1,9.941324234E0
1.228597705E0,1.388636976E-1,9.097966552E-2,9.943717957E0
1.230606299E0,1.556231081E-1,9.816227108E-2,9.948506355E0
1.232614893E0,1.628057212E-1,9.097966552E-2,9.960477829E0
1.234623486E0,1.532289088E-1,9.576806426E-2,9.970054626E0
1.236632080E0,1.484405100E-1,1.029506698E-1,9.953294754E0
1.238640674E0,1.436520964E-1,1.101332754E-1,9.953294754E0
1.240649268E0,1.675941199E-1,1.005564705E-1,9.950901031E0
1.242657861E0,1.508347094E-1,1.053448766E-1,9.965266228E0
1.244666455E0,1.364694983E-1,9.816227108E-2,9.974843025E0
1.246675049E0,1.508347094E-1,9.576806426E-2,9.962871552E0
1.248683643E0,1.675941199E-1,9.097966552E-2,9.950901031E0
1.250692236E0,1.460463107E-1,1.029506698E-1,9.950901031E0
1.252700830E0,1.508347094E-1,9.816227108E-2,9.950901031E0
1.254709424E0,1.508347094E-1,1.005564705E-1,9.965266228E0
1.256718018E0,1.651999205E-1,9.576806426E-2,9.970054626E0
1.258726611E0,1.364694983E-1,8.619125932E-2,9.960477829E0
1.260735205E0,1.604115069E-1,8.858546615E-2,9.953294754E0
1.262743799E0,1.532289088E-1,9.576806426E-2,9.926959038E0
1.264752393E0,1.556231081E-1,1.029506698E-1,9.938929558E0
1.266760986E0,1.484405100E-1,1.005564705E-1,9.931747437E0
1.268769580E0,1.604115069E-1,9.576806426E-2,9.953294754E0
1.270778174E0,1.604115069E-1,1.125274822E-1,9.958083153E0
1.272786768E0,1.675941199E-1,9.816227108E-2,9.960477829E0
1.274795361E0,1.508347094E-1,9.576806426E-2,9.926959038E0
1.276803955E0,1.484405100E-1,9.337386489E-2,9.938929558E0
1.278812549E0,1.604115069E-1,1.077390760E-1,9.955689430E0
1.280821143E0,1.556231081E-1,1.053448766E-1,9.967659950E0
1.282829736E0,1.675941199E-1,1.101332754E-1,9.955689430E0
1.284838330E0,1.604115069E-1,1.053448766E-1,9.953294754E0
1.286846924E0,1.340752989E-1,9.337386489E-2,9.950901031E0
1.288855518E0,1.508347094E-1,9.816227108E-2,9.936535835E0
1.290864111E0,1.556231081E-1,1.077390760E-1,9.958083153E0
1.292872705E0,1.604115069E-1,9.816227108E-2,9.972448349E0
1.294881299E0,1.651999205E-1,1.005564705E-1,9.970054626E0
1.296889893E0,1.556231081E-1,1.005564705E-1,9.955689430E0
1.298898486E0,1.556231081E-1,1.173158810E-1,9.917382240E0
1.300907080E0,1.508347094E-1,9.337386489E-2,9.926959038E0
1.302915674E0,1.628057212E-1,1.005564705E-1,9.936535835E0
1.304924268E0,1.508347094E-1,1.005564705E-1,9.953294754E0
1.306932861E0,1.747767180E-1,1.149216816E-1,9.979631424E0
1.308941455E0,1.580173075E-1,1.029506698E-1,9.953294754E0
1.310950049E0,1.412578970E-1,1.005564705E-1,9.936535835E0
1.312958643E0,1.508347094E-1,1.149216816E-1,9.938929558E0
1.314967236E0,1.532289088E-1,1.053448766E-1,9.955689430E0
1.316975830E0,1.460463107E-1,1.101332754E-1,9.950901031E0
1.318984424E0,1.556231081E-1,1.029506698E-1,9.953294754E0
1.320993018E0,1.532289088E-1,9.816227108E-2,9.962871552E0
1.323001611E0,1.628057212E-1,1.005564705E-1,9.958083153E0
1.325010205E0,1.747767180E-1,1.077390760E-1,9.955689430E0
1.327018799E0,1.604115069E-1,1.029506698E-1,9.960477829E0
1.329027393E0,1.508347094E-1,1.053448766E-1,9.972448349E0
1.331035986E0,1.460463107E-1,1.053448766E-1,9.970054626E0
1.333044580E0,1.556231081E-1,9.816227108E-2,9.953294754E0
1.335049476E0,1.532289088E-1,9.576806426E-2,9.941324234E0
1.337054372E0,1.508347094E-1,1.005564705E-1,9.948506355E0
1.339059684E0,1.651999205E-1,1.029506698E-1,9.953294754E0
1.341065518E0,1.604115069E-1,1.125274822E-1,9.979631424E0
1.343071559E0,1.651999205E-1,9.576806426E-2,9.977236748E0
1.345077601E0,1.412578970E-1,9.816227108E-2,9.967659950E0
1.347084476E0,1.508347094E-1,1.101332754E-1,9.946112633E0
1.349092184E0,1.556231081E-1,1.005564705E-1,9.946112633E0
1.351100726E0,1.580173075E-1,1.077390760E-1,9.929352760E0
1.353110101E0,1.508347094E-1,1.053448766E-1,9.960477829E0
1.355120257E0,1.532289088E-1,1.053448766E-1,9.960477829E0
1.357131091E0,1.484405100E-1,9.576806426E-2,9.960477829E0
1.359142497E0,1.460463107E-1,1.029506698E-1,9.955689430E0
1.361154320E0,1.604115069E-1,1.101332754E-1,9.941324234E0
1.363166403E0,1.508347094E-1,1.101332754E-1,9.938929558E0
1.365178591E0,1.484405100E-1,1.221042871E-1,9.970054626E0
1.367190622E0,1.460463107E-1,1.053448766E-1,9.965266228E0
1.369199216E0,1.508347094E-1,1.053448766E-1,9.965266228E0
1.371207757E0,1.556231081E-1,9.576806426E-2,9.977236748E0
1.373216299E0,1.556231081E-1,9.097966552E-2,9.950901031E0
1.375224841E0,1.556231081E-1,1.101332754E-1,9.943717957E0
1.377233382E0,1.556231081E-1,1.005564705E-1,9.943717957E0
1.379241924E0,1.556231081E-1,1.125274822E-1,9.967659950E0
1.381250466E0,1.460463107E-1,1.077390760E-1,9.950901031E0
1.383259007E0,1.508347094E-1,1.029506698E-1,9.950901031E0
1.385267549E0,1.604115069E-1,1.053448766E-1,9.934141159E0
1.387276091E0,1.508347094E-1,9.816227108E-2,9.922170639E0
1.389284632E0,1.604115069E-1,9.576806426E-2,9.950901031E0
1.391293174E0,1.532289088E-1,9.816227108E-2,9.967659950E0
1.393301716E0,1.532289088E-1,9.576806426E-2,9.962871552E0
1.395310257E0,1.508347094E-1,9.337386489E-2,9.953294754E0
1.397318799E0,1.556231081E-1,1.077390760E-1,9.962871552E0
1.399327341E0,1.580173075E-1,1.053448766E-1,9.950901031E0
1.401335882E0,1.484405100E-1,1.005564705E-1,9.960477829E0
1.403344424E0,1.508347094E-1,1.149216816E-1,9.974843025E0
1.405352966E0,1.628057212E-1,1.053448766E-1,9.967659950E0
1.407361507E0,1.484405100E-1,1.197100878E-1,9.962871552E0
1.409370049E0,1.508347094E-1,1.053448766E-1,9.950901031E0
1.411378591E0,1.604115069E-1,1.005564705E-1,9.941324234E0
1.413387132E0,1.675941199E-1,1.005564705E-1,9.955689430E0
1.415395674E0,1.436520964E-1,8.858546615E-2,9.960477829E0
1.417404216E0,1.651999205E-1,9.816227108E-2,9.974843025E0
1.419412757E0,1.628057212E-1,9.576806426E-2,9.960477829E0
1.421421299E0,1.604115069E-1,1.029506698E-1,9.960477829E0
1.423429841E0,1.460463107E-1,9.337386489E-2,9.962871552E0
1.425438382E0,1.508347094E-1,9.576806426E-2,9.955689430E0
1.427446924E0,1.556231081E-1,1.077390760E-1,9.970054626E0
1.429455466E0,1.556231081E-1,1.053448766E-1,9.960477829E0
1.431464007E0,1.532289088E-1,9.576806426E-2,9.955689430E0
1.433472549E0,1.460463107E-1,1.029506698E-1,9.922170639E0
1.435481091E0,1.484405100E-1,9.816227108E-2,9.936535835E0
1.437489632E0,1.484405100E-1,1.005564705E-1,9.938929558E0
1.439498174E0,1.364694983E-1,7.900865376E-2,9.960477829E0
1.441506716E0,1.556231081E-1,1.029506698E-1,9.953294754E0
1.443515309E0,1.532289088E-1,9.337386489E-2,9.946112633E0
1.445523903E0,1.460463107E-1,1.101332754E-1,9.941324234E0
1.447532497E0,1.484405100E-1,9.816227108E-2,9.936535835E0
1.449541091E0,1.556231081E-1,9.337386489E-2,9.953294754E0
1.451549684E0,1.364694983E-1,8.858546615E-2,9.962871552E0
1.453558278E0,1.484405100E-1,1.101332754E-1,9.955689430E0
1.455566872E0,1.556231081E-1,9.337386489E-2,9.960477829E0
1.457575466E0,1.436520964E-1,9.337386489E-2,9.943717957E0
1.459584059E0,1.508347094E-1,1.125274822E-1,9.948506355E0
1.461592653E0,1.556231081E-1,9.816227108E-2,9.946112633E0
1.463601247E0,1.508347094E-1,9.576806426E-2,9.950901031E0
1.465609841E0,1.604115069E-1,9.097966552E-2,9.953294754E0
1.467618434E0,1.484405100E-1,9.816227108E-2,9.938929558E0
1.469627028E0,1.436520964E-1,9.337386489E-2,9.936535835E0
1.471635622E0,1.532289088E-1,1.005564705E-1,9.919775963E0
1.473644216E0,1.508347094E-1,1.077390760E-1,9.941324234E0
1.475652809E0,1.532289088E-1,1.053448766E-1,9.943717957E0
1.477661403E0,1.508347094E-1,1.125274822E-1,9.955689430E0
1.479669997E0,1.580173075E-1,1.149216816E-1,9.953294754E0
1.481678591E0,1.556231081E-1,1.077390760E-1,9.946112633E0
1.483687184E0,1.628057212E-1,1.244984865E-1,9.941324234E0
1.485695778E0,1.436520964E-1,1.149216816E-1,9.950901031E0
1.487704372E0,1.604115069E-1,1.149216816E-1,9.936535835E0
1.489712966E0,1.484405100E-1,1.053448766E-1,9.989208221E0
1.491721559E0,1.460463107E-1,9.816227108E-2,9.974843025E0
1.493730153E0,1.436520964E-1,1.077390760E-1,9.982025146E0
1.495738747E0,1.628057212E-1,1.125274822E-1,9.965266228E0
1.497747341E0,1.580173075E-1,1.077390760E-1,9.958083153E0
1.499755934E0,1.556231081E-1,9.576806426E-2,9.965266228E0
1.501764528E0,1.532289088E-1,1.077390760E-1,9.970054626E0
1.503773122E0,1.436520964E-1,1.005564705E-1,9.960477829E0
1.505781716E0,1.484405100E-1,7.900865376E-2,9.965266228E0
1.507790309E0,1.723825186E-1,1.029506698E-1,9.946112633E0
1.509798903E0,1.556231081E-1,1.149216816E-1,9.948506355E0
1.511807497E0,1.604115069E-1,8.379705995E-2,9.962871552E0
1.513816091E0,1.436520964E-1,1.029506698E-1,9.967659950E0
1.515824684E0,1.436520964E-1,1.077390760E-1,9.962871552E0
1.517833278E0,1.484405100E-1,9.576806426E-2,9.958083153E0
1.519841872E0,1.556231081E-1,9.816227108E-2,9.955689430E0
1.521850466E0,1.651999205E-1,1.029506698E-1,9.958083153E0
1.523859059E0,1.532289088E-1,1.053448766E-1,9.960477829E0
1.525867653E0,1.484405100E-1,9.576806426E-2,9.986813545E0
1.527876247E0,1.484405100E-1,1.053448766E-1,9.979631424E0
1.529884841E0,1.508347094E-1,9.816227108E-2,9.953294754E0
1.531893434E0,1.460463107E-1,9.576806426E-2,9.955689430E0
1.533902028E0,1.460463107E-1,1.125274822E-1,9.941324234E0
1.535910622E0,1.628057212E-1,8.858546615E-2,9.950901031E0
1.537919216E0,1.532289088E-1,1.029506698E-1,9.953294754E0
1.539927809E0,1.340752989E-1,8.619125932E-2,9.950901031E0
1.541936403E0,1.604115069E-1,1.101332754E-1,9.946112633E0
1.543944997E0,1.556231081E-1,9.097966552E-2,9.929352760E0
1.545953591E0,1.460463107E-1,1.005564705E-1,9.926959038E0
1.547962184E0,1.580173075E-1,8.858546615E-2,9.931747437E0
1.549970778E0,1.436520964E-1,1.101332754E-1,9.965266228E0
1.551979372E0,1.508347094E-1,1.101332754E-1,9.958083153E0
1.553987966E0,1.532289088E-1,1.125274822E-1,9.950901031E0
1.555996559E0,1.556231081E-1,9.576806426E-2,9.960477829E0
1.558005153E0,1.556231081E-1,1.077390760E-1,9.948506355E0
1.560013747E0,1.340752989E-1,1.029506698E-1,9.965266228E0
1.562022341E0,1.484405100E-1,9.816227108E-2,9.950901031E0
1.564030934E0,1.556231081E-1,1.029506698E-1,9.960477829E0
1.566039528E0,1.484405100E-1,1.053448766E-1,9.950901031E0
1.568048122E0,1.412578970E-1,9.816227108E-2,9.938929558E0
1.570056716E0,1.436520964E-1,9.576806426E-2,9.934141159E0
1.572065309E0,1.460463107E-1,1.053448766E-1,9.941324234E0
1.574073903E0,1.484405100E-1,1.029506698E-1,9.948506355E0
1.576082497E0,1.436520964E-1,1.005564705E-1,9.953294754E0
1.578091091E0,1.532289088E-1,9.816227108E-2,9.948506355E0
1.580099684E0,1.460463107E-1,1.077390760E-1,9.948506355E0
1.582108278E0,1.532289088E-1,1.029506698E-1,9.946112633E0
1.584116872E0,1.651999205E-1,1.029506698E-1,9.967659950E0
1.586125466E0,1.316810995E-1,1.029506698E-1,9.953294754E0
1.588134059E0,1.604115069E-1,1.053448766E-1,9.960477829E0
1.590142653E0,1.484405100E-1,1.149216816E-1,9.958083153E0
1.592151247E0,1.460463107E-1,1.029506698E-1,9.948506355E0
1.594159841E0,1.388636976E-1,1.053448766E-1,9.948506355E0
1.596168434E0,1.628057212E-1,1.029506698E-1,9.950901031E0
1.598177028E0,1.532289088E-1,9.337386489E-2,9.970054626E0
1.600185570E0,1.604115069E-1,1.005564705E-1,9.955689430E0
1.602194111E0,1.556231081E-1,1.101332754E-1,9.943717957E0
1.604202653E0,1.436520964E-1,1.053448766E-1,9.950901031E0
1.606211195E0,1.460463107E-1,9.816227108E-2,9.948506355E0
1.608219736E0,1.628057212E-1,1.053448766E-1,9.970054626E0
1.610228278E0,1.628057212E-1,1.029506698E-1,9.955689430E0
1.612236820E0,1.460463107E-1,9.576806426E-2,9.958083153E0
1.614245361E0,1.508347094E-1,9.097966552E-2,9.950901031E0
1.616253903E0,1.532289088E-1,1.125274822E-1,9.943717957E0
1.618262445E0,1.460463107E-1,1.173158810E-1,9.946112633E0
1.620270986E0,1.604115069E-1,1.149216816E-1,9.953294754E0
1.622279528E0,1.388636976E-1,9.816227108E-2,9.950901031E0
1.624288070E0,1.532289088E-1,1.053448766E-1,9.974843025E0
1.626296611E0,1.508347094E-1,1.149216816E-1,9.958083153E0
1.628305153E0,1.604115069E-1,1.173158810E-1,9.943717957E0
1.630313695E0,1.508347094E-1,1.173158810E-1,9.936535835E0
1.632322236E0,1.556231081E-1,9.576806426E-2,9.962871552E0
1.634330778E0,1.508347094E-1,1.244984865E-1,9.960477829E0
1.636339320E0,1.580173075E-1,1.029506698E-1,9.950901031E0
1.638347861E0,1.628057212E-1,9.097966552E-2,9.938929558E0
1.640356403E0,1.436520964E-1,1.053448766E-1,9.946112633E0
1.642364945E0,1.556231081E-1,1.197100878E-1,9.938929558E0
1.644373486E0,1.604115069E-1,1.101332754E-1,9.946112633E0
1.646382028E0,1.364694983E-1,9.097966552E-2,9.974843025E0
1.648390570E0,1.532289088E-1,1.005564705E-1,9.965266228E0
1.650399111E0,1.484405100E-1,1.005564705E-1,9.948506355E0
1.652407653E0,1.412578970E-1,1.149216816E-1,9.938929558E0
1.654416195E0,1.508347094E-1,1.029506698E-1,9.931747437E0
1.656424736E0,1.556231081E-1,1.125274822E-1,9.950901031E0
1.658433278E0,1.604115069E-1,1.053448766E-1,9.941324234E0
1.660441820E0,1.556231081E-1,1.197100878E-1,9.958083153E0
1.662450361E0,1.508347094E-1,1.029506698E-1,9.936535835E0
1.664458903E0,1.556231081E-1,9.097966552E-2,9.943717957E0
1.666467445E0,1.604115069E-1,1.244984865E-1,9.931747437E0
1.668475986E0,1.484405100E-1,1.053448766E-1,9.943717957E0
1.670484528E0,1.580173075E-1,1.029506698E-1,9.962871552E0
1.672493122E0,1.460463107E-1,9.816227108E-2,9.962871552E0
1.674501716E0,1.675941199E-1,1.053448766E-1,9.943717957E0
1.676510309E0,1.628057212E-1,1.101332754E-1,9.946112633E0
1.678518903E0,1.604115069E-1,1.149216816E-1,9.946112633E0
1.680527497E0,1.628057212E-1,1.053448766E-1,9.955689430E0
1.682536091E0,1.747767180E-1,1.221042871E-1,9.972448349E0
1.684544684E0,1.628057212E-1,1.125274822E-1,9.960477829E0
1.686553278E0,1.532289088E-1,9.337386489E-2,9.943717957E0
1.688561872E0,1.532289088E-1,9.576806426E-2,9.934141159E0
1.690570466E0,1.628057212E-1,1.101332754E-1,9.931747437E0
1.692579059E0,1.651999205E-1,1.005564705E-1,9.984419823E0
1.694587653E0,1.628057212E-1,1.029506698E-1,9.977236748E0
1.696596247E0,1.556231081E-1,9.337386489E-2,9.977236748E0
1.698604841E0,1.675941199E-1,1.005564705E-1,9.958083153E0
1.700613434E0,1.460463107E-1,1.029506698E-1,9.962871552E0
1.702622028E0,1.699883193E-1,1.101332754E-1,9.953294754E0
1.704630622E0,1.747767180E-1,1.053448766E-1,9.938929558E0
1.706639216E0,1.388636976E-1,1.029506698E-1,9.948506355E0
1.708647809E0,1.580173075E-1,1.077390760E-1,9.967659950E0
1.710656403E0,1.556231081E-1,8.858546615E-2,9.967659950E0
1.712664997E0,1.436520964E-1,9.816227108E-2,9.946112633E0
1.714673591E0,1.532289088E-1,1.005564705E-1,9.943717957E0
1.716682184E0,1.651999205E-1,9.816227108E-2,9.960477829E0
1.718690778E0,1.747767180E-1,9.337386489E-2,9.977236748E0
1.720699372E0,1.604115069E-1,1.125274822E-1,9.982025146E0
1.722707966E0,1.580173075E-1,9.576806426E-2,9.972448349E0
1.724716559E0,1.340752989E-1,8.379705995E-2,9.962871552E0
1.726725153E0,1.580173075E-1,9.576806426E-2,9.938929558E0
1.728733747E0,1.484405100E-1,9.816227108E-2,9.924564362E0
1.730742341E0,1.699883193E-1,9.816227108E-2,9.974843025E0
1.732750934E0,1.699883193E-1,9.097966552E-2,1.002272701E1
1.734759528E0,1.843535304E-1,9.576806426E-2,1.001075554E1
1.736768122E0,1.604115069E-1,8.619125932E-2,9.972448349E0
1.738776716E0,1.340752989E-1,1.005564705E-1,9.912593842E0
1.740785309E0,1.412578970E-1,1.053448766E-1,9.871891975E0
1.742793903E0,1.460463107E-1,1.101332754E-1,9.876680374E0
1.744802497E0,1.268926859E-1,9.337386489E-2,9.893440247E0
1.746811091E0,1.484405100E-1,1.125274822E-1,9.926959038E0
1.748819684E0,1.460463107E-1,9.816227108E-2,9.958083153E0
1.750828278E0,1.580173075E-1,1.029506698E-1,9.974843025E0
1.752836872E0,1.699883193E-1,1.077390760E-1,9.977236748E0
1.754845466E0,1.556231081E-1,8.379705995E-2,9.962871552E0
1.756854059E0,1.484405100E-1,1.173158810E-1,9.984419823E0
1.758862653E0,1.556231081E-1,9.097966552E-2,9.989208221E0
1.760871247E0,1.556231081E-1,1.077390760E-1,9.986813545E0
1.762879841E0,1.580173075E-1,1.005564705E-1,9.960477829E0
1.764888434E0,1.364694983E-1,1.029506698E-1,9.934141159E0
1.766897028E0,1.532289088E-1,1.077390760E-1,9.922170639E0
1.768905622E0,1.436520964E-1,1.005564705E-1,9.929352760E0
1.770914216E0,1.628057212E-1,9.816227108E-2,9.907805443E0
1.772922809E0,1.508347094E-1,9.337386489E-2,9.912593842E0
1.774931403E0,1.484405100E-1,1.149216816E-1,9.917382240E0
1.776939997E0,1.604115069E-1,1.053448766E-1,9.948506355E0
1.778948591E0,1.532289088E-1,8.858546615E-2,9.974843025E0
1.780957184E0,1.628057212E-1,1.005564705E-1,9.986813545E0
1.782965778E0,1.388636976E-1,9.337386489E-2,1.000357342E1
1.784974372E0,1.771709323E-1,1.029506698E-1,9.996390343E0
1.786982966E0,1.604115069E-1,1.053448766E-1,9.982025146E0
1.788991559E0,1.628057212E-1,1.005564705E-1,9.960477829E0
1.791000153E0,1.532289088E-1,9.337386489E-2,9.960477829E0
1.793008747E0,1.532289088E-1,1.149216816E-1,9.965266228E0
1.795017341E0,1.532289088E-1,1.053448766E-1,9.946112633E0
1.797025934E0,1.556231081E-1,1.029506698E-1,9.929352760E0
1.799034528E0,1.556231081E-1,9.576806426E-2,9.929352760E0
1.801043122E0,1.508347094E-1,1.149216816E-1,9.941324234E0
1.803051716E0,1.412578970E-1,1.149216816E-1,9.948506355E0
1.805060309E0,1.556231081E-1,1.029506698E-1,9.967659950E0
1.807068903E0,1.436520964E-1,9.816227108E-2,9.962871552E0
1.809077497E0,1.604115069E-1,1.077390760E-1,9.974843025E0
1.811086091E0,1.604115069E-1,9.576806426E-2,9.960477829E0
1.813094684E0,1.556231081E-1,1.149216816E-1,9.962871552E0
1.815103278E0,1.651999205E-1,1.029506698E-1,9.946112633E0
1.817111872E0,1.556231081E-1,1.101332754E-1,9.958083153E0
1.819120466E0,1.484405100E-1,1.005564705E-1,9.938929558E0
1.821129059E0,1.484405100E-1,1.053448766E-1,9.931747437E0
1.823137653E0,1.484405100E-1,1.053448766E-1,9.936535835E0
1.825146247E0,1.604115069E-1,1.005564705E-1,9.948506355E0
1.827154841E0,1.580173075E-1,1.005564705E-1,9.960477829E0
1.829163382E0,1.580173075E-1,1.077390760E-1,9.965266228E0
1.831171924E0,1.532289088E-1,1.077390760E-1,9.965266228E0
1.833180466E0,1.388636976E-1,1.053448766E-1,9.934141159E0
1.835189007E0,1.508347094E-1,9.097966552E-2,9.924564362E0
1.837197549E0,1.460463107E-1,9.337386489E-2,9.912593842E0
1.839206091E0,1.580173075E-1,1.029506698E-1,9.934141159E0
1.841214632E0,1.651999205E-1,8.140286058E-2,9.938929558E0
1.843223174E0,1.532289088E-1,9.097966552E-2,9.967659950E0
1.845231716E0,1.580173075E-1,1.029506698E-1,9.941324234E0
1.847240257E0,1.675941199E-1,1.029506698E-1,9.938929558E0
1.849248799E0,1.508347094E-1,1.077390760E-1,9.953294754E0
1.851257341E0,1.604115069E-1,9.576806426E-2,9.955689430E0
1.853265882E0,1.604115069E-1,1.101332754E-1,9.974843025E0
1.855274424E0,1.484405100E-1,9.097966552E-2,9.960477829E0
1.857282966E0,1.628057212E-1,9.576806426E-2,9.962871552E0
1.859291507E0,1.556231081E-1,9.816227108E-2,9.974843025E0
1.861300049E0,1.651999205E-1,9.816227108E-2,9.953294754E0
1.863308591E0,1.580173075E-1,8.619125932E-2,9.965266228E0
1.865317132E0,1.699883193E-1,9.097966552E-2,9.943717957E0
1.867325674E0,1.604115069E-1,9.337386489E-2,9.955689430E0
1.869334216E0,1.580173075E-1,1.053448766E-1,9.960477829E0
1.871342757E0,1.508347094E-1,8.619125932E-2,9.948506355E0
1.873351299E0,1.436520964E-1,9.337386489E-2,9.936535835E0
1.875359841E0,1.532289088E-1,9.097966552E-2,9.984419823E0
1.877368382E0,1.675941199E-1,9.576806426E-2,9.991601944E0
1.879376924E0,1.675941199E-1,9.097966552E-2,9.982025146E0
1.881385466E0,1.556231081E-1,1.005564705E-1,9.950901031E0
1.883394007E0,1.604115069E-1,8.619125932E-2,9.953294754E0
1.885402549E0,1.532289088E-1,9.816227108E-2,9.950901031E0
1.887411091E0,1.580173075E-1,1.029506698E-1,9.960477829E0
1.889419632E0,1.556231081E-1,9.816227108E-2,9.965266228E0
1.891428174E0,1.628057212E-1,8.619125932E-2,9.982025146E0
1.893436716E0,1.580173075E-1,9.097966552E-2,9.967659950E0
1.895445257E0,1.508347094E-1,9.576806426E-2,9.958083153E0
1.897453799E0,1.532289088E-1,9.337386489E-2,9.958083153E0
1.899462341E0,1.628057212E-1,9.337386489E-2,9.972448349E0
1.901470934E0,1.532289088E-1,1.029506698E-1,9.974843025E0
1.903479528E0,1.556231081E-1,1.053448766E-1,9.962871552E0
1.905488122E0,1.628057212E-1,8.140286058E-2,9.962871552E0
1.907496716E0,1.580173075E-1,9.337386489E-2,9.926959038E0
1.909505309E0,1.580173075E-1,8.379705995E-2,9.929352760E0
1.911513903E0,1.532289088E-1,9.576806426E-2,9.953294754E0
1.913522497E0,1.484405100E-1,1.053448766E-1,9.955689430E0
1.915531091E0,1.675941199E-1,1.149216816E-1,9.960477829E0
1.917539684E0,1.532289088E-1,1.053448766E-1,9.962871552E0
1.919548278E0,1.628057212E-1,1.005564705E-1,9.934141159E0
1.921556872E0,1.532289088E-1,9.576806426E-2,9.946112633E0
1.923565466E0,1.675941199E-1,9.097966552E-2,9.948506355E0
1.925574059E0,1.651999205E-1,9.576806426E-2,9.970054626E0
1.927582653E0,1.460463107E-1,9.576806426E-2,9.960477829E0
1.929591247E0,1.532289088E-1,1.029506698E-1,9.948506355E0
1.931599841E0,1.508347094E-1,1.077390760E-1,9.936535835E0
1.933608434E0,1.628057212E-1,9.576806426E-2,9.914987564E0
1.935617028E0,1.532289088E-1,1.029506698E-1,9.941324234E0
1.937625622E0,1.604115069E-1,1.077390760E-1,9.955689430E0
1.939634216E0,1.699883193E-1,9.816227108E-2,9.948506355E0
1.941642809E0,1.580173075E-1,1.005564705E-1,9.962871552E0
1.943651403E0,1.556231081E-1,9.816227108E-2,9.950901031E0
1.945659997E0,1.580173075E-1,8.140286058E-2,9.955689430E0
1.947668591E0,1.484405100E-1,1.053448766E-1,9.946112633E0
1.949677184E0,1.699883193E-1,9.576806426E-2,9.967659950E0
1.951685778E0,1.675941199E-1,9.816227108E-2,9.962871552E0
1.953694372E0,1.508347094E-1,1.053448766E-1,9.958083153E0
1.955702966E0,1.723825186E-1,1.029506698E-1,9.958083153E0
1.957711559E0,1.675941199E-1,1.005564705E-1,9.960477829E0
1.959720153E0,1.675941199E-1,1.029506698E-1,9.970054626E0
1.961728747E0,1.532289088E-1,1.029506698E-1,9.986813545E0
1.963737341E0,1.747767180E-1,1.053448766E-1,9.977236748E0
1.965745934E0,1.723825186E-1,1.077390760E-1,9.977236748E0
1.967754528E0,1.604115069E-1,9.816227108E-2,9.953294754E0
1.969763122E0,1.628057212E-1,9.816227108E-2,9.919775963E0
1.971771716E0,1.532289088E-1,9.337386489E-2,9.946112633E0
1.973780309E0,1.675941199E-1,9.816227108E-2,9.970054626E0
1.975788903E0,1.412578970E-1,1.005564705E-1,9.974843025E0
1.977797497E0,1.508347094E-1,9.576806426E-2,9.967659950E0
1.979806091E0,1.580173075E-1,9.097966552E-2,9.950901031E0
1.981814684E0,1.604115069E-1,9.576806426E-2,9.948506355E0
1.983823278E0,1.484405100E-1,1.005564705E-1,9.953294754E0
1.985831872E0,1.580173075E-1,1.029506698E-1,9.960477829E0
1.987840466E0,1.436520964E-1,9.816227108E-2,9.970054626E0
1.989849059E0,1.628057212E-1,9.097966552E-2,9.962871552E0
1.991857653E0,1.484405100E-1,8.858546615E-2,9.958083153E0
1.993866247E0,1.388636976E-1,1.005564705E-1,9.934141159E0
1.995874841E0,1.532289088E-1,9.816227108E-2,9.946112633E0
1.997883434E0,1.580173075E-1,1.053448766E-1,9.967659950E0
1.999892028E0,1.628057212E-1,9.576806426E-2,9.962871552E0
2.001900622E0,1.484405100E-1,1.173158810E-1,9.953294754E0
2.003909216E0,1.580173075E-1,9.576806426E-2,9.948506355E0
2.005917809E0,1.604115069E-1,1.077390760E-1,9.934141159E0
2.007926403E0,1.556231081E-1,1.077390760E-1,9.934141159E0
2.009934997E0,1.580173075E-1,1.149216816E-1,9.977236748E0
2.011943591E0,1.628057212E-1,9.816227108E-2,9.982025146E0
2.013952184E0,1.508347094E-1,9.816227108E-2,9.970054626E0
2.015960778E0,1.628057212E-1,9.816227108E-2,9.938929558E0
2.017969372E0,1.556231081E-1,9.816227108E-2,9.965266228E0
2.019977966E0,1.556231081E-1,1.053448766E-1,9.950901031E0
2.021986559E0,1.460463107E-1,9.337386489E-2,9.960477829E0
2.023995153E0,1.532289088E-1,9.337386489E-2,9.972448349E0
2.026003747E0,1.508347094E-1,1.029506698E-1,9.972448349E0
2.028012341E0,1.532289088E-1,7.900865376E-2,9.960477829E0
2.030020934E0,1.460463107E-1,1.029506698E-1,9.958083153E0
2.032029528E0,1.436520964E-1,9.816227108E-2,9.960477829E0
2.034038122E0,1.580173075E-1,8.619125932E-2,9.972448349E0
2.036046716E0,1.604115069E-1,9.816227108E-2,9.972448349E0
2.038055309E0,1.484405100E-1,8.858546615E-2,9.941324234E0
2.040063903E0,1.556231081E-1,9.097966552E-2,9.943717957E0
2.042072497E0,1.580173075E-1,9.576806426E-2,9.934141159E0
2.044081091E0,1.532289088E-1,9.097966552E-2,9.936535835E0
2.046089684E0,1.580173075E-1,9.816227108E-2,9.943717957E0
2.048098278E0,1.604115069E-1,9.337386489E-2,9.962871552E0
2.050106872E0,1.580173075E-1,1.053448766E-1,9.962871552E0
2.052115466E0,1.532289088E-1,9.337386489E-2,9.946112633E0
2.054124059E0,1.580173075E-1,8.858546615E-2,9.955689430E0
2.056132653E0,1.532289088E-1,9.816227108E-2,9.955689430E0
2.058141247E0,1.699883193E-1,1.005564705E-1,9.962871552E0
2.060149788E0,1.532289088E-1,1.053448766E-1,9.967659950E0
2.062158330E0,1.508347094E-1,9.337386489E-2,9.977236748E0
2.064166872E0,1.484405100E-1,9.097966552E-2,9.946112633E0
2.066175413E0,1.556231081E-1,1.005564705E-1,9.943717957E0
2.068183955E0,1.723825186E-1,1.029506698E-1,9.936535835E0
2.070192497E0,1.651999205E-1,9.097966552E-2,9.941324234E0
2.072201038E0,1.699883193E-1,9.816227108E-2,9.982025146E0
2.074209580E0,1.580173075E-1,1.101332754E-1,9.970054626E0
2.076218122E0,1.628057212E-1,1.053448766E-1,9.967659950E0
2.078226663E0,1.628057212E-1,1.077390760E-1,9.962871552E0
2.080235205E0,1.556231081E-1,9.576806426E-2,9.943717957E0
2.082243747E0,1.580173075E-1,9.576806426E-2,9.960477829E0
2.084252288E0,1.580173075E-1,9.576806426E-2,9.977236748E0
2.086260830E0,1.675941199E-1,1.005564705E-1,9.977236748E0
2.088269372E0,1.628057212E-1,1.029506698E-1,9.960477829E0
2.090277913E0,1.532289088E-1,1.029506698E-1,9.934141159E0
2.092286455E0,1.580173075E-1,9.816227108E-2,9.936535835E0
2.094294997E0,1.675941199E-1,9.097966552E-2,9.955689430E0
2.096303538E0,1.723825186E-1,9.816227108E-2,9.953294754E0
2.098312080E0,1.675941199E-1,9.816227108E-2,9.955689430E0
2.100320622E0,1.556231081E-1,1.053448766E-1,9.948506355E0
2.102329163E0,1.580173075E-1,1.125274822E-1,9.938929558E0
2.104337705E0,1.484405100E-1,1.053448766E-1,9.922170639E0
2.106346247E0,1.675941199E-1,9.337386489E-2,9.936535835E0
2.108354788E0,1.580173075E-1,9.576806426E-2,9.953294754E0
2.110363330E0,1.747767180E-1,1.029506698E-1,9.974843025E0
2.112371872E0,1.532289088E-1,1.029506698E-1,9.965266228E0
2.114380413E0,1.651999205E-1,1.101332754E-1,9.936535835E0
2.116388955E0,1.556231081E-1,1.221042871E-1,9.953294754E0
2.118397497E0,1.628057212E-1,1.101332754E-1,9.948506355E0
2.120406038E0,1.532289088E-1,9.816227108E-2,9.950901031E0
2.122414580E0,1.580173075E-1,9.576806426E-2,9.974843025E0
2.124423122E0,1.771709323E-1,8.379705995E-2,9.972448349E0
2.126431663E0,1.364694983E-1,1.029506698E-1,9.955689430E0
2.128440205E0,1.484405100E-1,1.029506698E-1,9.934141159E0
2.130448747E0,1.699883193E-1,9.816227108E-2,9.941324234E0
2.132457341E0,1.651999205E-1,9.097966552E-2,9.970054626E0
2.134465934E0,1.675941199E-1,9.576806426E-2,9.970054626E0
2.136474528E0,1.484405100E-1,1.053448766E-1,9.960477829E0
2.138483122E0,1.508347094E-1,8.858546615E-2,9.936535835E0
2.140491716E0,1.508347094E-1,1.005564705E-1,9.924564362E0
2.142500309E0,1.556231081E-1,9.097966552E-2,9.924564362E0
2.144508903E0,1.628057212E-1,9.337386489E-2,9.958083153E0
2.146517497E0,1.460463107E-1,1.029506698E-1,9.972448349E0
2.148526091E0,1.580173075E-1,9.097966552E-2,9.962871552E0
2.150534684E0,1.580173075E-1,8.619125932E-2,9.941324234E0
2.152543278E0,1.604115069E-1,1.101332754E-1,9.934141159E0
2.154551872E0,1.532289088E-1,9.097966552E-2,9.943717957E0
2.156560466E0,1.580173075E-1,7.900865376E-2,9.960477829E0
2.158569059E0,1.628057212E-1,1.005564705E-1,9.936535835E0
2.160577653E0,1.484405100E-1,1.005564705E-1,9.943717957E0
2.162586247E0,1.556231081E-1,1.053448766E-1,9.941324234E0
2.164594841E0,1.604115069E-1,9.816227108E-2,9.936535835E0
2.166603434E0,1.699883193E-1,9.337386489E-2,9.943717957E0
2.168612028E0,1.628057212E-1,1.029506698E-1,9.946112633E0
2.170620622E0,1.532289088E-1,9.337386489E-2,9.974843025E0
2.172629216E0,1.532289088E-1,8.619125932E-2,9.953294754E0
2.174637809E0,1.628057212E-1,1.029506698E-1,9.974843025E0
2.176646403E0,1.532289088E-1,1.029506698E-1,9.953294754E0
2.178654997E0,1.604115069E-1,9.337386489E-2,9.974843025E0
2.180663591E0,1.651999205E-1,9.576806426E-2,9.967659950E0
2.182672184E0,1.604115069E-1,9.576806426E-2,9.965266228E0
2.184680778E0,1.484405100E-1,1.005564705E-1,9.958083153E0
2.186689372E0,1.580173075E-1,9.097966552E-2,9.934141159E0
2.188697966E0,1.508347094E-1,9.816227108E-2,9.946112633E0
2.190706559E0,1.532289088E-1,1.029506698E-1,9.943717957E0
2.192715153E0,1.412578970E-1,1.029506698E-1,9.962871552E0
2.194723747E0,1.604115069E-1,8.858546615E-2,9.974843025E0
2.196732341E0,1.508347094E-1,8.858546615E-2,9.965266228E0
2.198740934E0,1.556231081E-1,1.077390760E-1,9.962871552E0
2.200749528E0,1.723825186E-1,8.619125932E-2,9.936535835E0
2.202758122E0,1.604115069E-1,1.005564705E-1,9.941324234E0
2.204766716E0,1.412578970E-1,8.379705995E-2,9.953294754E0
2.206775309E0,1.484405100E-1,1.029506698E-1,9.960477829E0
2.208783903E0,1.795651317E-1,1.077390760E-1,9.953294754E0
2.210792497E0,1.580173075E-1,9.097966552E-2,9.934141159E0
2.212801091E0,1.604115069E-1,1.005564705E-1,9.934141159E0
2.214809684E0,1.556231081E-1,9.816227108E-2,9.941324234E0
2.216818278E0,1.628057212E-1,1.029506698E-1,9.948506355E0
2.218826872E0,1.628057212E-1,1.029506698E-1,9.953294754E0
2.220835466E0,1.651999205E-1,1.101332754E-1,9.958083153E0
2.222844059E0,1.651999205E-1,9.816227108E-2,9.955689430E0
2.224852653E0,1.508347094E-1,1.053448766E-1,9.929352760E0
2.226861247E0,1.460463107E-1,9.337386489E-2,9.938929558E0
2.228869841E0,1.675941199E-1,9.097966552E-2,9.958083153E0
2.230878434E0,1.484405100E-1,1.029506698E-1,9.960477829E0
2.232887028E0,1.556231081E-1,9.816227108E-2,9.967659950E0
2.234895622E0,1.556231081E-1,1.005564705E-1,9.955689430E0
2.236904216E0,1.484405100E-1,9.337386489E-2,9.948506355E0
2.238912809E0,1.675941199E-1,9.816227108E-2,9.946112633E0
2.240921403E0,1.699883193E-1,1.053448766E-1,9.982025146E0
2.242929997E0,1.604115069E-1,9.576806426E-2,9.977236748E0
2.244938591E0,1.628057212E-1,1.005564705E-1,9.970054626E0
2.246947184E0,1.628057212E-1,9.816227108E-2,9.960477829E0
2.248955778E0,1.819593310E-1,1.005564705E-1,9.950901031E0
2.250964372E0,1.556231081E-1,1.005564705E-1,9.934141159E0
2.252972966E0,1.675941199E-1,1.125274822E-1,9.946112633E0
2.254981559E0,1.628057212E-1,1.005564705E-1,9.967659950E0
2.256990153E0,1.580173075E-1,1.005564705E-1,9.972448349E0
2.258998747E0,1.388636976E-1,1.053448766E-1,9.967659950E0
2.261007341E0,1.628057212E-1,1.125274822E-1,9.941324234E0
2.263015934E0,1.604115069E-1,1.005564705E-1,9.955689430E0
2.265024528E0,1.628057212E-1,1.101332754E-1,9.958083153E0
2.267033122E0,1.699883193E-1,1.149216816E-1,9.972448349E0
2.269041716E0,1.580173075E-1,1.149216816E-1,9.970054626E0
2.271050309E0,1.580173075E-1,1.077390760E-1,9.955689430E0
2.273058903E0,1.556231081E-1,1.125274822E-1,9.955689430E0
2.275067497E0,1.628057212E-1,1.053448766E-1,9.958083153E0
2.277076091E0,1.604115069E-1,9.816227108E-2,9.958083153E0
2.279084684E0,1.580173075E-1,9.816227108E-2,9.965266228E0
2.281093278E0,1.651999205E-1,1.125274822E-1,9.965266228E0
2.283101872E0,1.604115069E-1,1.029506698E-1,9.946112633E0
2.285110466E0,1.484405100E-1,1.221042871E-1,9.938929558E0
2.287119007E0,1.580173075E-1,1.101332754E-1,9.922170639E0
2.289127549E0,1.699883193E-1,9.816227108E-2,9.958083153E0
2.291136091E0,1.604115069E-1,1.053448766E-1,9.972448349E0
2.293144632E0,1.388636976E-1,1.005564705E-1,9.948506355E0
2.295153174E0,1.460463107E-1,1.173158810E-1,9.950901031E0
2.297161716E0,1.580173075E-1,1.053448766E-1,9.929352760E0
2.299170257E0,1.628057212E-1,1.077390760E-1,9.929352760E0
2.301178799E0,1.675941199E-1,1.077390760E-1,9.962871552E0
2.303187341E0,1.412578970E-1,1.101332754E-1,9.950901031E0
2.305195882E0,1.604115069E-1,8.140286058E-2,9.967659950E0
2.307204424E0,1.675941199E-1,1.053448766E-1,9.941324234E0
2.309212966E0,1.484405100E-1,1.005564705E-1,9.926959038E0
2.311221507E0,1.532289088E-1,1.053448766E-1,9.929352760E0
2.313230049E0,1.628057212E-1,1.053448766E-1,9.919775963E0
2.315238591E0,1.508347094E-1,7.661445439E-2,9.946112633E0
2.317247132E0,1.484405100E-1,8.619125932E-2,9.960477829E0
2.319255674E0,1.604115069E-1,9.816227108E-2,9.972448349E0
2.321264216E0,1.675941199E-1,1.173158810E-1,9.955689430E0
2.323272757E0,1.604115069E-1,9.816227108E-2,9.953294754E0
2.325281299E0,1.628057212E-1,9.337386489E-2,9.967659950E0
2.327289841E0,1.628057212E-1,9.097966552E-2,9.970054626E0
2.329298382E0,1.747767180E-1,1.005564705E-1,9.977236748E0
2.331306924E0,1.675941199E-1,9.337386489E-2,9.953294754E0
2.333315466E0,1.532289088E-1,9.097966552E-2,9.929352760E0
2.335324007E0,1.532289088E-1,8.619125932E-2,9.936535835E0
2.337332549E0,1.532289088E-1,1.029506698E-1,9.941324234E0
2.339341091E0,1.556231081E-1,9.576806426E-2,9.958083153E0
2.341349632E0,1.675941199E-1,8.858546615E-2,9.962871552E0
2.343358174E0,1.651999205E-1,9.097966552E-2,9.958083153E0
2.345366716E0,1.484405100E-1,1.077390760E-1,9.953294754E0
2.347375257E0,1.628057212E-1,1.005564705E-1,9.938929558E0
2.349383799E0,1.628057212E-1,9.816227108E-2,9.950901031E0
2.351392341E0,1.580173075E-1,1.101332754E-1,9.950901031E0
2.353400882E0,1.556231081E-1,8.858546615E-2,9.962871552E0
2.355409424E0,1.723825186E-1,1.053448766E-1,9.962871552E0
2.357417966E0,1.460463107E-1,9.097966552E-2,9.938929558E0
2.359426559E0,1.651999205E-1,8.858546615E-2,9.943717957E0
2.361435153E0,1.532289088E-1,9.097966552E-2,9.950901031E0
2.363443747E0,1.460463107E-1,9.816227108E-2,9.967659950E0
2.365452341E0,1.651999205E-1,9.337386489E-2,9.970054626E0
2.367460934E0,1.675941199E-1,9.097966552E-2,9.970054626E0
2.369469528E0,1.556231081E-1,9.576806426E-2,9.950901031E0
2.371478122E0,1.436520964E-1,9.576806426E-2,9.948506355E0
2.373486716E0,1.508347094E-1,1.053448766E-1,9.967659950E0
2.375495309E0,1.532289088E-1,9.337386489E-2,9.972448349E0
2.377503903E0,1.604115069E-1,8.619125932E-2,9.974843025E0
2.379512497E0,1.460463107E-1,9.337386489E-2,9.996390343E0
2.381521091E0,1.532289088E-1,9.816227108E-2,9.970054626E0
2.383529684E0,1.412578970E-1,9.816227108E-2,9.943717957E0
2.385538278E0,1.651999205E-1,9.337386489E-2,9.970054626E0
2.387546872E0,1.436520964E-1,1.005564705E-1,9.895833969E0
2.389555466E0,1.675941199E-1,1.077390760E-1,9.883863449E0
2.391564059E0,1.532289088E-1,1.005564705E-1,9.900622368E0
2.393572653E0,1.412578970E-1,9.816227108E-2,9.929352760E0
2.395581247E0,1.723825186E-1,1.029506698E-1,9.974843025E0
2.397589841E0,1.747767180E-1,1.101332754E-1,9.991601944E0
2.399598434E0,1.604115069E-1,1.005564705E-1,9.970054626E0
2.401607028E0,1.412578970E-1,1.053448766E-1,9.974843025E0
2.403615622E0,1.628057212E-1,1.077390760E-1,9.986813545E0
2.405624216E0,1.580173075E-1,9.816227108E-2,9.984419823E0
2.407632809E0,1.556231081E-1,1.125274822E-1,9.974843025E0
2.409641403E0,1.580173075E-1,1.077390760E-1,9.950901031E0
2.411649997E0,1.580173075E-1,1.005564705E-1,9.962871552E0
2.413658591E0,1.484405100E-1,8.619125932E-2,9.962871552E0
2.415667184E0,1.628057212E-1,9.576806426E-2,9.962871552E0
2.417675778E0,1.556231081E-1,9.337386489E-2,9.931747437E0
2.419684372E0,1.508347094E-1,1.077390760E-1,9.914987564E0
2.421692966E0,1.532289088E-1,1.101332754E-1,9.910199165E0
2.423701559E0,1.580173075E-1,1.005564705E-1,9.953294754E0
2.425710153E0,1.795651317E-1,1.125274822E-1,9.967659950E0
2.427718747E0,1.747767180E-1,9.337386489E-2,9.970054626E0
2.429727341E0,1.580173075E-1,1.101332754E-1,9.967659950E0
2.431735934E0,1.580173075E-1,1.077390760E-1,9.955689430E0
2.433744528E0,1.484405100E-1,1.101332754E-1,9.967659950E0
2.435753122E0,1.556231081E-1,1.077390760E-1,9.977236748E0
2.437761716E0,1.675941199E-1,9.816227108E-2,9.962871552E0
2.439770309E0,1.508347094E-1,1.029506698E-1,9.955689430E0
2.441778903E0,1.556231081E-1,9.816227108E-2,9.962871552E0
2.443787497E0,1.604115069E-1,9.576806426E-2,9.941324234E0
2.445796091E0,1.699883193E-1,1.268926859E-1,9.934141159E0
2.447804684E0,1.628057212E-1,9.337386489E-2,9.948506355E0
2.449813278E0,1.723825186E-1,9.097966552E-2,9.967659950E0
2.451821872E0,1.556231081E-1,1.005564705E-1,9.950901031E0
2.453830466E0,1.460463107E-1,1.101332754E-1,9.943717957E0
2.455839059E0,1.675941199E-1,1.053448766E-1,9.953294754E0
2.457847653E0,1.604115069E-1,9.816227108E-2,9.953294754E0
2.459856247E0,1.556231081E-1,1.029506698E-1,9.958083153E0
2.461864841E0,1.628057212E-1,9.816227108E-2,9.970054626E0
2.463873434E0,1.604115069E-1,1.005564705E-1,9.962871552E0
2.465882028E0,1.508347094E-1,8.858546615E-2,9.941324234E0
2.467890622E0,1.604115069E-1,8.858546615E-2,9.943717957E0
2.469899216E0,1.484405100E-1,1.101332754E-1,9.950901031E0
2.471907809E0,1.484405100E-1,1.029506698E-1,9.936535835E0
2.473916403E0,1.747767180E-1,1.221042871E-1,9.953294754E0
2.475924997E0,1.460463107E-1,1.101332754E-1,9.967659950E0
2.477933591E0,1.508347094E-1,9.816227108E-2,9.938929558E0
2.479942184E0,1.580173075E-1,8.858546615E-2,9.919775963E0
2.481950778E0,1.556231081E-1,1.053448766E-1,9.960477829E0
2.483959372E0,1.532289088E-1,1.005564705E-1,9.938929558E0
2.485967966E0,1.556231081E-1,9.337386489E-2,9.972448349E0
2.487976559E0,1.460463107E-1,9.816227108E-2,9.965266228E0
2.489985153E0,1.508347094E-1,1.077390760E-1,9.962871552E0
2.491993747E0,1.340752989E-1,1.053448766E-1,9.941324234E0
2.494002341E0,1.484405100E-1,1.005564705E-1,9.953294754E0
2.496010934E0,1.532289088E-1,9.337386489E-2,9.958083153E0
2.498019528E0,1.675941199E-1,1.077390760E-1,9.965266228E0
2.500028122E0,1.436520964E-1,9.097966552E-2,9.972448349E0
2.502036716E0,1.460463107E-1,1.029506698E-1,9.955689430E0
2.504045309E0,1.484405100E-1,1.077390760E-1,9.946112633E0
2.506053903E0,1.580173075E-1,9.337386489E-2,9.967659950E0
2.508062497E0,1.532289088E-1,9.337386489E-2,9.960477829E0
2.510071091E0,1.556231081E-1,1.029506698E-1,9.955689430E0
2.512079684E0,1.436520964E-1,9.097966552E-2,9.982025146E0
2.514088278E0,1.699883193E-1,1.053448766E-1,9.965266228E0
2.516096820E0,1.556231081E-1,1.077390760E-1,9.936535835E0
2.518105361E0,1.484405100E-1,8.379705995E-2,9.938929558E0
2.520113903E0,1.532289088E-1,1.029506698E-1,9.919775963E0
2.522122445E0,1.484405100E-1,9.097966552E-2,9.960477829E0
2.524130986E0,1.604115069E-1,7.182604820E-2,9.950901031E0
2.526139528E0,1.604115069E-1,9.097966552E-2,9.953294754E0
2.528148070E0,1.460463107E-1,9.337386489E-2,9.948506355E0
2.530156611E0,1.412578970E-1,9.337386489E-2,9.929352760E0
2.532165153E0,1.556231081E-1,9.816227108E-2,9.965266228E0
2.534173695E0,1.508347094E-1,1.053448766E-1,9.950901031E0
2.536182236E0,1.580173075E-1,1.053448766E-1,9.962871552E0
2.538190778E0,1.556231081E-1,1.077390760E-1,9.958083153E0
2.540199320E0,1.508347094E-1,9.097966552E-2,9.950901031E0
2.542207861E0,1.484405100E-1,9.337386489E-2,9.938929558E0
2.544216403E0,1.436520964E-1,8.858546615E-2,9.955689430E0
2.546224945E0,1.651999205E-1,1.053448766E-1,9.960477829E0
2.548233486E0,1.508347094E-1,1.029506698E-1,9.960477829E0
2.550242028E0,1.436520964E-1,1.053448766E-1,9.931747437E0
2.552250570E0,1.628057212E-1,1.029506698E-1,9.946112633E0
2.554259111E0,1.532289088E-1,1.029506698E-1,9.924564362E0
2.556267653E0,1.460463107E-1,1.173158810E-1,9.948506355E0
2.558276195E0,1.604115069E-1,1.077390760E-1,9.982025146E0
2.560284736E0,1.556231081E-1,9.576806426E-2,9.965266228E0
2.562293278E0,1.508347094E-1,1.053448766E-1,9.960477829E0
2.564301820E0,1.532289088E-1,9.337386489E-2,9.977236748E0
2.566310361E0,1.508347094E-1,1.005564705E-1,9.953294754E0
2.568318903E0,1.604115069E-1,1.125274822E-1,9.941324234E0
2.570327445E0,1.508347094E-1,1.005564705E-1,9.970054626E0
2.572335986E0,1.532289088E-1,1.149216816E-1,9.974843025E0
2.574344528E0,1.580173075E-1,1.101332754E-1,9.948506355E0
2.576353070E0,1.651999205E-1,8.858546615E-2,9.962871552E0
2.578361611E0,1.556231081E-1,1.053448766E-1,9.941324234E0
2.580370153E0,1.675941199E-1,9.337386489E-2,9.955689430E0
2.582378695E0,1.436520964E-1,9.816227108E-2,9.970054626E0
2.584387236E0,1.412578970E-1,1.053448766E-1,9.960477829E0
2.586395778E0,1.723825186E-1,9.816227108E-2,9.967659950E0
2.588404372E0,1.508347094E-1,1.005564705E-1,9.965266228E0
2.590412966E0,1.604115069E-1,9.816227108E-2,9.938929558E0
2.592421559E0,1.508347094E-1,1.053448766E-1,9.958083153E0
2.594430153E0,1.604115069E-1,1.077390760E-1,9.953294754E0
2.596438747E0,1.484405100E-1,1.029506698E-1,9.970054626E0
2.598447341E0,1.651999205E-1,1.077390760E-1,9.962871552E0
2.600455934E0,1.508347094E-1,1.077390760E-1,9.943717957E0
2.602464528E0,1.628057212E-1,1.221042871E-1,9.943717957E0
2.604473122E0,1.532289088E-1,1.101332754E-1,9.950901031E0
2.606481716E0,1.484405100E-1,1.005564705E-1,9.948506355E0
2.608490309E0,1.532289088E-1,1.029506698E-1,9.967659950E0
2.610498903E0,1.675941199E-1,1.029506698E-1,9.967659950E0
2.612507497E0,1.508347094E-1,1.005564705E-1,9.943717957E0
2.614516091E0,1.651999205E-1,1.221042871E-1,9.943717957E0
2.616524684E0,1.556231081E-1,1.053448766E-1,9.938929558E0
2.618533278E0,1.484405100E-1,1.005564705E-1,9.934141159E0
2.620541872E0,1.388636976E-1,1.053448766E-1,9.941324234E0
2.622550466E0,1.628057212E-1,1.077390760E-1,9.955689430E0
2.624559059E0,1.532289088E-1,1.053448766E-1,9.936535835E0
2.626567653E0,1.484405100E-1,1.173158810E-1,9.917382240E0
2.628576247E0,1.508347094E-1,9.337386489E-2,9.931747437E0
2.630584841E0,1.675941199E-1,9.816227108E-2,9.946112633E0
2.632593434E0,1.580173075E-1,1.053448766E-1,9.958083153E0
2.634602028E0,1.436520964E-1,8.619125932E-2,9.953294754E0
2.636610622E0,1.436520964E-1,9.337386489E-2,9.962871552E0
2.638619216E0,1.532289088E-1,9.816227108E-2,9.950901031E0
2.640627809E0,1.628057212E-1,1.077390760E-1,9.955689430E0
2.642636403E0,1.532289088E-1,1.077390760E-1,9.962871552E0
2.644644997E0,1.628057212E-1,8.858546615E-2,9.977236748E0
2.646653591E0,1.532289088E-1,1.005564705E-1,9.979631424E0
2.648662184E0,1.628057212E-1,1.101332754E-1,9.977236748E0
2.650670778E0,1.508347094E-1,1.053448766E-1,9.946112633E0
2.652679372E0,1.556231081E-1,1.029506698E-1,9.953294754E0
2.654687966E0,1.604115069E-1,1.053448766E-1,9.970054626E0
2.656696559E0,1.675941199E-1,1.053448766E-1,9.972448349E0
2.658705153E0,1.604115069E-1,1.101332754E-1,9.984419823E0
2.660713747E0,1.580173075E-1,1.005564705E-1,9.941324234E0
2.662722341E0,1.699883193E-1,1.029506698E-1,9.941324234E0
2.664730934E0,1.484405100E-1,1.029506698E-1,9.924564362E0
2.666739528E0,1.604115069E-1,9.576806426E-2,9.955689430E0
2.668748122E0,1.604115069E-1,1.077390760E-1,9.982025146E0
2.670756716E0,1.484405100E-1,1.029506698E-1,9.958083153E0
2.672765309E0,1.508347094E-1,9.337386489E-2,9.972448349E0
2.674773903E0,1.532289088E-1,9.576806426E-2,9.946112633E0
2.676782497E0,1.556231081E-1,9.816227108E-2,9.960477829E0
2.678791091E0,1.604115069E-1,8.858546615E-2,9.970054626E0
2.680799684E0,1.651999205E-1,1.029506698E-1,9.970054626E0
2.682808278E0,1.628057212E-1,9.816227108E-2,9.974843025E0
2.684816872E0,1.436520964E-1,9.337386489E-2,9.960477829E0
2.686825466E0,1.484405100E-1,1.005564705E-1,9.926959038E0
2.688834059E0,1.556231081E-1,1.125274822E-1,9.943717957E0
2.690842653E0,1.651999205E-1,1.005564705E-1,9.938929558E0
2.692851247E0,1.628057212E-1,8.858546615E-2,9.962871552E0
2.694859841E0,1.604115069E-1,9.576806426E-2,9.989208221E0
2.696868434E0,1.556231081E-1,8.619125932E-2,9.958083153E0
2.698877028E0,1.651999205E-1,9.337386489E-2,9.958083153E0
2.700885622E0,1.532289088E-1,9.816227108E-2,9.960477829E0
2.702894216E0,1.556231081E-1,9.576806426E-2,9.950901031E0
2.704902809E0,1.532289088E-1,1.005564705E-1,9.984419823E0
2.706911403E0,1.508347094E-1,1.005564705E-1,9.958083153E0
2.708919997E0,1.364694983E-1,1.125274822E-1,9.941324234E0
2.710928591E0,1.484405100E-1,1.053448766E-1,9.950901031E0
2.712937184E0,1.556231081E-1,1.029506698E-1,9.929352760E0
2.714945778E0,1.628057212E-1,1.077390760E-1,9.946112633E0
2.716954372E0,1.532289088E-1,9.816227108E-2,9.958083153E0
2.718962966E0,1.460463107E-1,1.173158810E-1,9.931747437E0
2.720971559E0,1.508347094E-1,1.029506698E-1,9.929352760E0
2.722980153E0,1.460463107E-1,1.149216816E-1,9.903017044E0
2.724988747E0,1.508347094E-1,9.816227108E-2,9.914987564E0
2.726997341E0,1.364694983E-1,1.005564705E-1,9.948506355E0
2.729005934E0,1.723825186E-1,1.244984865E-1,9.965266228E0
2.731014528E0,1.580173075E-1,1.053448766E-1,9.979631424E0
2.733023122E0,1.604115069E-1,9.337386489E-2,9.977236748E0
2.735031716E0,1.628057212E-1,1.053448766E-1,9.931747437E0
2.737040309E0,1.628057212E-1,1.029506698E-1,9.953294754E0
2.739048903E0,1.604115069E-1,9.337386489E-2,9.943717957E0
2.741057497E0,1.651999205E-1,1.053448766E-1,9.958083153E0
2.743066038E0,1.508347094E-1,9.816227108E-2,9.970054626E0
2.745074580E0,1.484405100E-1,1.053448766E-1,9.962871552E0
2.747083122E0,1.556231081E-1,1.053448766E-1,9.965266228E0
2.749091663E0,1.604115069E-1,1.029506698E-1,9.962871552E0
2.751100205E0,1.651999205E-1,1.077390760E-1,9.970054626E0
2.753108747E0,1.651999205E-1,1.029506698E-1,9.986813545E0
2.755117288E0,1.771709323E-1,9.576806426E-2,1.001315022E1
2.757125830E0,1.723825186E-1,1.029506698E-1,1.002272701E1
2.759134372E0,1.628057212E-1,7.900865376E-2,1.000117874E1
2.761142913E0,1.771709323E-1,7.900865376E-2,1.004427433E1
2.763151455E0,1.747767180E-1,1.077390760E-1,1.002272701E1
2.765159997E0,1.651999205E-1,9.576806426E-2,1.004427433E1
2.767168538E0,1.747767180E-1,1.053448766E-1,1.001315022E1
2.769177080E0,1.460463107E-1,8.619125932E-2,9.965266228E0
2.771185622E0,1.580173075E-1,1.149216816E-1,9.934141159E0
2.773194163E0,1.364694983E-1,9.337386489E-2,9.891045570E0
2.775202705E0,1.268926859E-1,9.097966552E-2,9.838373184E0
2.777211247E0,1.604115069E-1,1.029506698E-1,9.876680374E0
2.779219788E0,1.508347094E-1,1.053448766E-1,9.893440247E0
2.781228330E0,1.340752989E-1,1.005564705E-1,9.891045570E0
2.783236872E0,1.508347094E-1,1.053448766E-1,9.903017044E0
2.785245413E0,1.628057212E-1,1.005564705E-1,9.934141159E0
2.787253955E0,1.484405100E-1,8.858546615E-2,9.934141159E0
2.789262497E0,1.699883193E-1,9.816227108E-2,9.967659950E0
2.791271038E0,1.651999205E-1,8.858546615E-2,9.965266228E0
2.793279580E0,1.436520964E-1,9.097966552E-2,9.970054626E0
2.795288122E0,1.556231081E-1,9.337386489E-2,9.960477829E0
2.797296663E0,1.532289088E-1,1.053448766E-1,9.948506355E0
2.799305205E0,1.580173075E-1,9.337386489E-2,9.970054626E0
2.801313747E0,1.651999205E-1,1.029506698E-1,9.965266228E0
2.803322288E0,1.604115069E-1,1.005564705E-1,9.962871552E0
2.805330830E0,1.556231081E-1,1.029506698E-1,9.965266228E0
2.807339372E0,1.532289088E-1,1.053448766E-1,9.948506355E0
2.809347913E0,1.556231081E-1,9.816227108E-2,9.948506355E0
2.811356455E0,1.508347094E-1,9.576806426E-2,9.955689430E0
2.813364997E0,1.628057212E-1,8.379705995E-2,9.982025146E0
2.815373591E0,1.628057212E-1,1.005564705E-1,9.967659950E0
2.817382184E0,1.604115069E-1,1.053448766E-1,9.958083153E0
2.819390778E0,1.556231081E-1,9.576806426E-2,9.941324234E0
2.821399372E0,1.604115069E-1,9.097966552E-2,9.946112633E0
2.823407966E0,1.604115069E-1,1.005564705E-1,9.946112633E0
2.825416559E0,1.651999205E-1,1.053448766E-1,9.955689430E0
2.827425153E0,1.651999205E-1,1.053448766E-1,9.970054626E0
2.829433747E0,1.556231081E-1,1.173158810E-1,9.960477829E0
2.831442341E0,1.484405100E-1,1.005564705E-1,9.941324234E0
2.833450934E0,1.412578970E-1,1.125274822E-1,9.943717957E0
2.835459528E0,1.628057212E-1,1.053448766E-1,9.950901031E0
2.837468122E0,1.508347094E-1,8.619125932E-2,9.972448349E0
2.839476716E0,1.532289088E-1,8.379705995E-2,9.982025146E0
2.841485309E0,1.580173075E-1,1.077390760E-1,9.984419823E0
2.843493903E0,1.532289088E-1,9.337386489E-2,9.967659950E0
2.845502497E0,1.580173075E-1,8.858546615E-2,9.967659950E0
2.847511091E0,1.484405100E-1,9.816227108E-2,9.974843025E0
2.849519684E0,1.580173075E-1,1.077390760E-1,9.982025146E0
2.851528278E0,1.580173075E-1,9.576806426E-2,9.993996620E0
2.853536872E0,1.556231081E-1,1.005564705E-1,9.982025146E0
2.855545466E0,1.580173075E-1,1.005564705E-1,9.977236748E0
2.857554059E0,1.484405100E-1,1.101332754E-1,9.960477829E0
2.859562653E0,1.532289088E-1,8.858546615E-2,9.955689430E0
2.861571247E0,1.580173075E-1,1.053448766E-1,9.984419823E0
2.863579841E0,1.723825186E-1,9.816227108E-2,9.984419823E0
2.865588434E0,1.580173075E-1,1.077390760E-1,9.979631424E0
2.867597028E0,1.556231081E-1,1.053448766E-1,9.950901031E0
2.869605622E0,1.556231081E-1,8.858546615E-2,9.950901031E0
2.871614216E0,1.604115069E-1,1.053448766E-1,9.958083153E0
2.873622809E0,1.508347094E-1,1.125274822E-1,9.950901031E0
2.875631403E0,1.628057212E-1,9.816227108E-2,9.970054626E0
2.877639997E0,1.532289088E-1,1.077390760E-1,9.962871552E0
2.879648591E0,1.532289088E-1,1.125274822E-1,9.948506355E0
2.881657184E0,1.556231081E-1,1.197100878E-1,9.938929558E0
2.883665778E0,1.532289088E-1,1.149216816E-1,9.938929558E0
2.885674372E0,1.508347094E-1,1.029506698E-1,9.946112633E0
2.887682966E0,1.460463107E-1,1.077390760E-1,9.960477829E0
2.889691559E0,1.484405100E-1,1.077390760E-1,9.943717957E0
2.891700153E0,1.556231081E-1,1.029506698E-1,9.926959038E0
2.893708747E0,1.412578970E-1,1.101332754E-1,9.924564362E0
2.895717341E0,1.508347094E-1,1.149216816E-1,9.917382240E0
2.897725934E0,1.675941199E-1,9.576806426E-2,9.922170639E0
2.899734528E0,1.532289088E-1,9.816227108E-2,9.941324234E0
2.901743122E0,1.556231081E-1,9.576806426E-2,9.929352760E0
2.903751716E0,1.508347094E-1,1.077390760E-1,9.929352760E0
2.905760309E0,1.508347094E-1,1.077390760E-1,9.943717957E0
2.907768903E0,1.460463107E-1,9.097966552E-2,9.941324234E0
2.909777497E0,1.436520964E-1,1.197100878E-1,9.972448349E0
2.911786091E0,1.651999205E-1,1.125274822E-1,9.970054626E0
2.913794684E0,1.556231081E-1,1.005564705E-1,9.979631424E0
2.915803278E0,1.436520964E-1,1.101332754E-1,9.924564362E0
2.917811872E0,1.484405100E-1,1.101332754E-1,9.891045570E0
2.919820466E0,1.388636976E-1,9.576806426E-2,9.910199165E0
2.921829059E0,1.316810995E-1,1.053448766E-1,9.955689430E0
2.923837653E0,1.604115069E-1,9.816227108E-2,9.970054626E0
2.925846247E0,1.556231081E-1,9.097966552E-2,9.979631424E0
2.927854841E0,1.604115069E-1,1.029506698E-1,9.931747437E0
2.929863434E0,1.436520964E-1,1.125274822E-1,9.950901031E0
2.931872028E0,1.532289088E-1,1.077390760E-1,9.962871552E0
2.933880622E0,1.604115069E-1,8.379705995E-2,1.004427433E1
2.935889216E0,1.675941199E-1,1.053448766E-1,1.012328339E1
2.937897809E0,1.867477298E-1,9.576806426E-2,1.013286018E1
2.939906403E0,1.867477298E-1,9.576806426E-2,1.009455299E1
2.941914997E0,1.436520964E-1,8.619125932E-2,1.003230381E1
2.943923591E0,1.628057212E-1,1.053448766E-1,9.960477829E0
2.945932184E0,1.460463107E-1,1.149216816E-1,9.950901031E0
2.947940778E0,1.340752989E-1,9.576806426E-2,9.912593842E0
2.949949372E0,1.388636976E-1,1.053448766E-1,9.881468773E0
2.951957966E0,1.388636976E-1,1.005564705E-1,9.855133057E0
2.953966559E0,1.197100878E-1,1.101332754E-1,9.840767860E0
2.955975153E0,1.412578970E-1,1.029506698E-1,9.850344658E0
2.957983747E0,1.364694983E-1,1.029506698E-1,9.886257172E0
2.959992341E0,1.460463107E-1,1.053448766E-1,9.917382240E0
2.962000934E0,1.532289088E-1,9.576806426E-2,9.922170639E0
2.964009528E0,1.388636976E-1,9.576806426E-2,9.938929558E0
2.966018122E0,1.316810995E-1,1.077390760E-1,9.934141159E0
2.968026663E0,1.316810995E-1,1.029506698E-1,9.958083153E0
2.970035205E0,1.580173075E-1,1.029506698E-1,9.982025146E0
2.972043747E0,1.460463107E-1,9.576806426E-2,1.000596714E1
2.974052288E0,1.460463107E-1,9.816227108E-2,1.000596714E1
2.976060830E0,1.388636976E-1,9.337386489E-2,9.991601944E0
2.978069372E0,1.508347094E-1,9.816227108E-2,9.965266228E0
2.980077913E0,1.436520964E-1,8.858546615E-2,9.962871552E0
2.982086455E0,1.388636976E-1,9.816227108E-2,9.941324234E0
2.984094997E0,1.460463107E-1,1.005564705E-1,9.962871552E0
2.986103538E0,1.436520964E-1,9.816227108E-2,9.953294754E0
2.988112080E0,1.460463107E-1,1.077390760E-1,9.946112633E0
2.990120622E0,1.388636976E-1,8.619125932E-2,9.924564362E0
2.992129163E0,1.460463107E-1,9.337386489E-2,9.917382240E0
2.994137705E0,1.412578970E-1,9.576806426E-2,9.943717957E0
2.996146247E0,1.460463107E-1,9.576806426E-2,9.953294754E0
2.998154788E0,1.532289088E-1,9.337386489E-2,9.946112633E0
3.000163330E0,1.340752989E-1,1.077390760E-1,9.953294754E0
3.002171872E0,1.292868853E-1,1.125274822E-1,9.960477829E0
3.004180413E0,1.388636976E-1,9.816227108E-2,9.931747437E0
3.006188955E0,1.364694983E-1,1.053448766E-1,9.946112633E0
3.008197497E0,1.412578970E-1,1.077390760E-1,9.960477829E0
3.010206038E0,1.340752989E-1,9.337386489E-2,9.970054626E0
3.012214580E0,1.340752989E-1,1.053448766E-1,9.972448349E0
3.014223122E0,1.412578970E-1,9.816227108E-2,9.950901031E0
3.016231663E0,1.340752989E-1,1.029506698E-1,9.926959038E0
3.018240205E0,1.364694983E-1,1.197100878E-1,9.934141159E0
3.020248747E0,1.292868853E-1,1.005564705E-1,9.967659950E0
3.022257288E0,1.316810995E-1,1.053448766E-1,9.962871552E0
3.024265830E0,1.388636976E-1,1.005564705E-1,9.960477829E0
3.026274372E0,1.436520964E-1,1.053448766E-1,9.926959038E0
3.028282913E0,1.388636976E-1,1.053448766E-1,9.934141159E0
3.030291455E0,1.460463107E-1,1.125274822E-1,9.941324234E0
3.032299997E0,1.532289088E-1,1.101332754E-1,9.970054626E0
3.034308538E0,1.628057212E-1,1.077390760E-1,9.974843025E0
3.036317080E0,1.484405100E-1,1.173158810E-1,9.962871552E0
3.038325622E0,1.604115069E-1,1.292868853E-1,9.941324234E0
3.040334216E0,1.508347094E-1,1.244984865E-1,9.948506355E0
3.042342809E0,1.604115069E-1,9.576806426E-2,9.948506355E0
3.044351403E0,1.484405100E-1,1.101332754E-1,9.965266228E0
3.046359997E0,1.675941199E-1,1.029506698E-1,9.979631424E0
3.048368591E0,1.412578970E-1,1.053448766E-1,9.960477829E0
3.050377184E0,1.628057212E-1,9.576806426E-2,9.950901031E0
3.052385778E0,1.604115069E-1,1.101332754E-1,9.946112633E0
3.054394372E0,1.388636976E-1,1.173158810E-1,9.950901031E0
3.056402966E0,1.556231081E-1,1.125274822E-1,9.989208221E0
3.058411559E0,1.460463107E-1,1.244984865E-1,1.000117874E1
3.060420153E0,1.675941199E-1,1.053448766E-1,9.989208221E0
3.062428747E0,1.628057212E-1,1.029506698E-1,9.960477829E0
3.064437341E0,1.580173075E-1,1.005564705E-1,9.948506355E0
3.066445934E0,1.604115069E-1,1.029506698E-1,9.974843025E0
3.068454528E0,1.460463107E-1,1.053448766E-1,9.984419823E0
3.070463122E0,1.651999205E-1,1.173158810E-1,9.982025146E0
3.072471716E0,1.651999205E-1,1.029506698E-1,9.972448349E0
3.074480309E0,1.364694983E-1,1.053448766E-1,9.941324234E0
3.076488903E0,1.484405100E-1,9.576806426E-2,9.931747437E0
3.078497497E0,1.460463107E-1,1.077390760E-1,9.929352760E0
3.080506091E0,1.460463107E-1,1.101332754E-1,9.982025146E0
3.082514684E0,1.460463107E-1,1.125274822E-1,9.982025146E0
3.084523278E0,1.484405100E-1,1.053448766E-1,9.958083153E0
3.086531872E0,1.628057212E-1,9.097966552E-2,9.955689430E0
3.088540466E0,1.628057212E-1,9.337386489E-2,9.931747437E0
3.090549059E0,1.532289088E-1,1.053448766E-1,9.948506355E0
3.092557653E0,1.556231081E-1,9.816227108E-2,9.967659950E0
3.094566247E0,1.604115069E-1,1.053448766E-1,9.977236748E0
3.096574841E0,1.580173075E-1,1.077390760E-1,9.960477829E0
3.098583434E0,1.508347094E-1,1.173158810E-1,9.946112633E0
3.100592028E0,1.556231081E-1,1.005564705E-1,9.926959038E0
3.102600622E0,1.460463107E-1,1.197100878E-1,9.946112633E0
3.104609216E0,1.604115069E-1,1.125274822E-1,9.953294754E0
3.106617809E0,1.460463107E-1,1.053448766E-1,9.972448349E0
3.108626403E0,1.460463107E-1,1.005564705E-1,9.950901031E0
3.110634997E0,1.412578970E-1,1.005564705E-1,9.950901031E0
3.112643591E0,1.460463107E-1,1.053448766E-1,9.936535835E0
3.114652184E0,1.316810995E-1,1.125274822E-1,9.941324234E0
3.116660778E0,1.532289088E-1,9.816227108E-2,9.943717957E0
3.118669372E0,1.436520964E-1,9.576806426E-2,9.967659950E0
3.120677966E0,1.484405100E-1,1.101332754E-1,9.970054626E0
3.122686559E0,1.532289088E-1,1.053448766E-1,9.962871552E0
3.124695153E0,1.484405100E-1,1.053448766E-1,9.950901031E0
3.126703747E0,1.388636976E-1,9.576806426E-2,9.950901031E0
3.128712341E0,1.268926859E-1,1.029506698E-1,9.931747437E0
3.130720934E0,1.292868853E-1,1.077390760E-1,9.910199165E0
3.132729528E0,1.316810995E-1,9.576806426E-2,9.914987564E0
3.134738122E0,1.292868853E-1,9.337386489E-2,9.891045570E0
3.136746716E0,1.436520964E-1,1.053448766E-1,9.883863449E0
3.138755309E0,1.364694983E-1,1.101332754E-1,9.926959038E0
3.140763903E0,1.460463107E-1,9.816227108E-2,9.943717957E0
3.142772497E0,1.388636976E-1,1.005564705E-1,9.922170639E0
3.144781091E0,1.556231081E-1,1.029506698E-1,9.907805443E0
3.146789684E0,1.412578970E-1,1.005564705E-1,9.919775963E0
3.148798278E0,1.412578970E-1,1.077390760E-1,9.910199165E0
3.150806872E0,1.316810995E-1,9.337386489E-2,9.938929558E0
3.152815466E0,1.604115069E-1,1.101332754E-1,9.962871552E0
3.154824059E0,1.580173075E-1,1.005564705E-1,9.977236748E0
3.156832653E0,1.460463107E-1,7.900865376E-2,9.982025146E0
3.158841247E0,1.460463107E-1,1.029506698E-1,9.974843025E0
3.160849841E0,1.388636976E-1,8.858546615E-2,9.986813545E0
3.162858434E0,1.484405100E-1,1.053448766E-1,9.984419823E0
3.164867028E0,1.412578970E-1,9.337386489E-2,9.960477829E0
3.166875622E0,1.388636976E-1,8.619125932E-2,9.960477829E0
3.168884216E0,1.460463107E-1,1.077390760E-1,9.974843025E0
3.170892809E0,1.340752989E-1,9.816227108E-2,9.943717957E0
3.172901403E0,1.628057212E-1,9.576806426E-2,9.926959038E0
3.174909997E0,1.508347094E-1,8.140286058E-2,9.979631424E0
3.176918591E0,1.388636976E-1,9.337386489E-2,9.912593842E0
3.178927184E0,1.628057212E-1,1.149216816E-1,9.907805443E0
3.180935778E0,1.484405100E-1,9.816227108E-2,9.972448349E0
3.182944372E0,1.412578970E-1,1.077390760E-1,9.996390343E0
3.184952966E0,1.508347094E-1,1.005564705E-1,9.955689430E0
3.186961559E0,1.460463107E-1,1.005564705E-1,9.962871552E0
3.188970153E0,1.651999205E-1,1.029506698E-1,9.977236748E0
3.190978747E0,1.556231081E-1,1.053448766E-1,9.993996620E0
3.192987288E0,1.508347094E-1,1.005564705E-1,9.953294754E0
3.194995830E0,1.484405100E-1,8.858546615E-2,9.938929558E0
3.197004372E0,1.436520964E-1,1.029506698E-1,9.929352760E0
3.199012913E0,1.556231081E-1,1.125274822E-1,9.905410767E0
3.201021455E0,1.436520964E-1,1.077390760E-1,9.924564362E0
3.203029997E0,1.484405100E-1,9.337386489E-2,9.962871552E0
3.205038538E0,1.628057212E-1,9.816227108E-2,9.953294754E0
3.207047080E0,1.628057212E-1,9.337386489E-2,9.982025146E0
3.209055622E0,1.604115069E-1,8.619125932E-2,9.977236748E0
3.211064163E0,1.436520964E-1,9.097966552E-2,9.934141159E0
3.213072705E0,1.532289088E-1,1.077390760E-1,9.922170639E0
3.215081247E0,1.508347094E-1,1.101332754E-1,9.950901031E0
3.217089788E0,1.436520964E-1,9.816227108E-2,9.991601944E0
3.219098330E0,1.675941199E-1,8.858546615E-2,1.008258152E1
3.221106872E0,1.843535304E-1,9.097966552E-2,1.012807178E1
3.223115413E0,1.604115069E-1,9.337386489E-2,1.004906273E1
3.225123955E0,1.651999205E-1,1.029506698E-1,9.950901031E0
3.227132497E0,1.412578970E-1,1.005564705E-1,9.888651848E0
3.229141038E0,1.292868853E-1,9.337386489E-2,9.862315178E0
3.231149580E0,1.388636976E-1,1.029506698E-1,9.811738014E0
3.233158122E0,1.268926859E-1,8.379705995E-2,9.881468773E0
3.235166663E0,1.436520964E-1,1.029506698E-1,9.867103577E0
3.237175205E0,1.532289088E-1,1.125274822E-1,9.879075050E0
3.239183747E0,1.484405100E-1,9.337386489E-2,9.943717957E0
3.241192288E0,1.580173075E-1,9.816227108E-2,9.989208221E0
3.243200830E0,1.651999205E-1,9.576806426E-2,1.008736992E1
3.245209372E0,1.532289088E-1,9.337386489E-2,1.009694672E1
3.247217913E0,1.723825186E-1,1.101332754E-1,9.931747437E0
3.249226455E0,1.699883193E-1,1.005564705E-1,1.000596714E1
3.251234997E0,1.723825186E-1,9.097966552E-2,1.006342793E1
3.253243538E0,1.675941199E-1,1.029506698E-1,1.001554394E1
3.255252080E0,1.508347094E-1,1.077390760E-1,9.922170639E0
3.257260622E0,1.412578970E-1,1.005564705E-1,9.840767860E0
3.259269163E0,1.053448766E-1,1.077390760E-1,9.850344658E0
3.261277705E0,1.388636976E-1,1.005564705E-1,9.811738014E0
3.263286247E0,1.436520964E-1,1.053448766E-1,9.900622368E0
3.265294841E0,1.340752989E-1,1.005564705E-1,9.986813545E0
3.267303434E0,1.580173075E-1,1.173158810E-1,1.002751541E1
3.269312028E0,1.675941199E-1,1.053448766E-1,1.013046551E1
3.271320622E0,1.795651317E-1,9.576806426E-2,1.019750404E1
3.273329216E0,2.011129409E-1,1.197100878E-1,1.011610031E1
3.275337809E0,1.771709323E-1,1.029506698E-1,1.016398430E1
3.277346403E0,1.604115069E-1,1.005564705E-1,1.008976460E1
3.279354997E0,1.747767180E-1,1.125274822E-1,9.970054626E0
3.281363591E0,1.149216816E-1,1.005564705E-1,9.905410767E0
3.283372184E0,1.556231081E-1,1.244984865E-1,9.761459351E0
3.285380778E0,1.604115069E-1,1.244984865E-1,9.780612946E0
3.287389372E0,1.436520964E-1,8.858546615E-2,9.982025146E0
3.289397966E0,1.029506698E-1,1.029506698E-1,9.929352760E0
3.291406559E0,1.723825186E-1,1.221042871E-1,9.696816444E0
3.293415153E0,1.604115069E-1,1.244984865E-1,9.818920135E0
3.295423747E0,1.651999205E-1,1.053448766E-1,1.004666901E1
3.297432341E0,1.723825186E-1,1.244984865E-1,1.000596714E1
3.299440934E0,1.699883193E-1,9.816227108E-2,9.926959038E0
3.301449528E0,1.628057212E-1,1.029506698E-1,9.965266228E0
3.303458122E0,1.939303428E-1,9.576806426E-2,9.965266228E0
3.305466716E0,1.963245422E-1,1.077390760E-1,1.005863953E1
3.307475309E0,1.843535304E-1,1.101332754E-1,1.016877270E1
3.309483903E0,1.843535304E-1,8.858546615E-2,1.017116737E1
3.311492497E0,1.843535304E-1,1.101332754E-1,1.008018780E1
3.313501091E0,1.532289088E-1,9.816227108E-2,1.000357342E1
3.315509684E0,1.340752989E-1,1.005564705E-1,9.946112633E0
3.317518278E0,1.149216816E-1,9.576806426E-2,9.881468773E0
3.319526872E0,1.268926859E-1,1.101332754E-1,9.811738014E0
3.321535466E0,1.173158810E-1,1.029506698E-1,9.797372818E0
3.323544059E0,1.316810995E-1,1.077390760E-1,9.838373184E0
3.325552653E0,8.379705995E-2,1.053448766E-1,9.929352760E0
3.327561247E0,1.244984865E-1,9.576806426E-2,9.823708534E0
3.329569841E0,1.388636976E-1,1.244984865E-1,9.735123634E0
3.331578434E0,7.900865376E-2,1.005564705E-1,9.780612946E0
3.333587028E0,2.035071403E-1,1.436520964E-1,9.794978142E0
3.335595622E0,1.651999205E-1,9.337386489E-2,1.009215832E1
3.337604216E0,1.221042871E-1,6.464344263E-2,1.021186924E1
3.339612809E0,1.340752989E-1,1.101332754E-1,9.989208221E0
3.341621403E0,2.852092683E-1,1.268926859E-1,1.014243698E1
3.343629997E0,3.546411395E-1,1.244984865E-1,1.077241135E1
3.345638591E0,1.987187415E-1,1.005564705E-1,1.063833618E1
3.347647184E0,7.182604820E-2,8.619125932E-2,1.001315022E1
3.349655778E0,4.548983276E-2,8.379705995E-2,9.589076996E0
3.351664372E0,5.746084079E-2,1.101332754E-1,9.548376083E0
3.353672966E0,-1.436521020E-2,9.816227108E-2,9.550769806E0
3.355681559E0,5.267243832E-2,1.125274822E-1,9.476549149E0
3.357690153E0,5.267243832E-2,1.508347094E-1,9.486125946E0
3.359698747E0,6.703764945E-2,1.292868853E-1,9.526827812E0
3.361707341E0,1.197100878E-1,1.436520964E-1,9.675268173E0
3.363715934E0,1.029506698E-1,1.197100878E-1,9.876680374E0
3.365724528E0,6.703764945E-2,1.221042871E-1,1.000357342E1
3.367733122E0,1.244984865E-1,1.651999205E-1,9.922170639E0
3.369741716E0,1.005564705E-1,1.484405100E-1,9.974843025E0
3.371750309E0,3.330933154E-1,1.556231081E-1,1.032200241E1
3.373758903E0,5.557540655E-1,4.070143029E-2,1.117493629E1
3.375767497E0,5.267243832E-2,3.351882473E-2,1.072692108E1
3.377776091E0,4.309562966E-2,1.053448766E-1,9.859921455E0
3.379784684E0,-2.873042040E-2,1.029506698E-1,9.483732224E0
3.381793278E0,6.464344263E-2,1.244984865E-1,9.371204376E0
3.383801872E0,6.943184882E-2,7.661445439E-2,9.421483040E0
3.385810466E0,1.149216816E-1,2.154781483E-2,9.581894875E0
3.387819059E0,1.029506698E-1,1.292868853E-1,9.991601944E0
3.389827653E0,2.130839527E-1,1.364694983E-1,1.024778175E1
3.391836247E0,4.049193561E-1,1.675941236E-2,1.049468422E1
3.393844841E0,6.395511031E-1,6.943184882E-2,1.060481739E1
3.395853434E0,-1.915361285E-1,5.985504389E-2,9.648932457E0
3.397862028E0,3.830722719E-2,1.005564705E-1,9.203310966E0
3.399870622E0,1.053448766E-1,1.149216816E-1,9.193734169E0
3.401879216E0,5.267243832E-2,1.101332754E-1,9.577106476E0
3.403887809E0,1.316810995E-1,1.197100878E-1,9.708786964E0
3.405896403E0,6.703764945E-2,9.816227108E-2,9.986813545E0
3.407904997E0,1.053448766E-1,1.316810995E-1,1.003948593E1
3.409913591E0,-2.154781483E-2,2.082955539E-1,1.018313885E1
3.411922184E0,-1.771709323E-1,3.043628931E-1,1.037706852E1
3.413930726E0,-1.149216816E-1,2.202665508E-1,1.049707794E1
3.415939268E0,-3.019686937E-1,2.178723514E-1,1.053059673E1
3.417947809E0,-6.539163589E-1,2.322375625E-1,1.048510742E1
3.419956351E0,-9.678560495E-1,2.537853718E-1,1.047074223E1
3.421964893E0,-1.022922635E0,4.504092038E-1,1.051383781E1
3.423973434E0,-8.047510386E-1,8.071452379E-1,1.055453873E1
3.425981976E0,-7.161656022E-1,9.247604012E-1,1.034594440E1
3.427990518E0,-6.850409508E-1,9.271546006E-1,1.011131191E1
3.429999059E0,-7.089830041E-1,8.215104342E-1,9.617807388E0
3.432007601E0,-7.808090448E-1,6.754641533E-1,9.383175850E0
3.434016143E0,-6.922235489E-1,5.222352743E-1,9.624990463E0
3.436024684E0,-3.115454912E-1,5.078700185E-1,9.972448349E0
3.438033226E0,2.154781483E-2,5.126584172E-1,1.056411552E1
3.440041768E0,5.533598661E-1,5.270236731E-1,1.117254257E1
3.442050309E0,6.970119476E-1,4.312555790E-1,1.157506752E1
3.444059163E0,6.730699539E-1,2.657563984E-1,1.143350983E1
3.446067966E0,5.796960592E-1,1.053448766E-1,1.096424675E1
3.448072757E0,5.078700185E-1,9.576806799E-3,1.042285824E1
3.450077549E0,3.594295382E-1,-2.633621916E-2,9.931747437E0
3.452082757E0,3.785831332E-1,2.394201700E-3,9.603442192E0
3.454088747E0,3.522469103E-1,1.675941236E-2,9.610625267E0
3.456094945E0,4.049193561E-1,1.675941236E-2,9.689633369E0
3.458101143E0,3.067570925E-1,1.675941236E-2,9.785401344E0
3.460108122E0,4.504092038E-1,1.915361360E-2,9.874286652E0
3.462115934E0,5.677250624E-1,5.985504389E-2,9.903017044E0
3.464124580E0,6.323685050E-1,1.149216816E-1,9.998785019E0
3.466134007E0,5.366004705E-1,1.125274822E-1,1.000836182E1
3.468144163E0,5.557540655E-1,1.891419291E-1,1.013046551E1
3.470154945E0,9.534908533E-1,3.498527110E-1,1.041567516E1
3.472166247E0,1.236006618E0,4.767454267E-1,1.050426102E1
3.474177966E0,1.293467522E0,5.533598661E-1,1.046116543E1
3.476189945E0,1.338957310E0,6.227917075E-1,1.031481934E1
3.478202028E0,1.319803715E0,7.233482003E-1,1.016398430E1
3.480213799E0,1.298255920E0,8.167220354E-1,1.002033234E1
3.482222341E0,1.255160213E0,9.103952050E-1,9.946112633E0
3.484230882E0,1.183334231E0,9.702502489E-1,9.895833969E0
3.486239424E0,1.075595140E0,1.003769040E0,9.960477829E0
3.488247966E0,1.166574836E0,9.247604012E-1,1.005624580E1
3.490256507E0,1.271919608E0,7.927800417E-1,1.018792725E1
3.492265049E0,1.264737010E0,8.433575630E-1,1.025496483E1
3.494273591E0,1.245583415E0,8.840589523E-1,1.035073280E1
3.496282132E0,1.116296530E0,9.319429994E-1,1.046116543E1
3.498290674E0,9.175778031E-1,9.989806414E-1,1.049228954E1
3.500299216E0,7.568669915E-1,1.051653147E0,1.042046356E1
3.502307757E0,5.820902586E-1,1.130661726E0,1.034594440E1
3.504316299E0,4.121019542E-1,1.200093627E0,1.027172375E1
3.506324841E0,3.522469103E-1,1.259948611E0,1.024299335E1
3.508333382E0,3.354875147E-1,1.300650120E0,1.029566574E1
3.510341924E0,3.187280893E-1,1.367687702E0,1.037228012E1
3.512350466E0,2.753331959E-1,1.430236220E0,1.047313595E1
3.514359007E0,2.828150690E-1,1.470937610E0,1.061439419E1
3.516367549E0,2.394201756E-1,1.509244919E0,1.075086308E1
3.518376091E0,1.939303428E-1,1.530792713E0,1.082987213E1
3.520384632E0,9.816227108E-2,1.585859299E0,1.089690971E1
3.522393174E0,-7.182605099E-3,1.621772408E0,1.091845798E1
3.524401716E0,-1.699883193E-1,1.652897000E0,1.100734234E1
3.526410257E0,-2.489969730E-1,1.616984010E0,1.105762100E1
3.528418799E0,-3.881599605E-1,1.581070900E0,1.120366669E1
3.530427341E0,-4.599860013E-1,1.523610115E0,1.149575901E1
3.532435882E0,-4.815338254E-1,1.487697124E0,1.168520069E1
3.534444424E0,-4.599860013E-1,1.468543410E0,1.180730534E1
3.536452966E0,-4.264671803E-1,1.415871024E0,1.197489929E1
3.538461507E0,-4.192845821E-1,1.358110905E0,1.217870522E1
3.540470049E0,-4.168903828E-1,1.240795016E0,1.239178944E1
3.542478591E0,-4.575918019E-1,1.176151633E0,1.251389408E1
3.544487132E0,-4.958990216E-1,1.113902330E0,1.255220127E1
3.546495674E0,-5.749076605E-1,1.063624144E0,1.249952888E1
3.548504216E0,-6.539163589E-1,1.003769040E0,1.244685650E1
3.550512757E0,-7.377133965E-1,9.678560495E-1,1.233672237E1
3.552521299E0,-7.999626398E-1,9.630676508E-1,1.221461868E1
3.554529893E0,-8.529343605E-1,9.319429994E-1,1.211885071E1
3.556538486E0,-8.191162348E-1,9.223662019E-1,1.204193687E1
3.558547080E0,-7.832032442E-1,9.175778031E-1,1.197968769E1
3.560555674E0,-7.137714028E-1,9.080010056E-1,1.196053410E1
3.562564268E0,-6.108207107E-1,9.391255975E-1,1.199165821E1
3.564572861E0,-5.126584172E-1,9.367313981E-1,1.209251404E1
3.566581455E0,-4.312555790E-1,9.367313981E-1,1.220504189E1
3.568590049E0,-3.690063357E-1,9.199720025E-1,1.229841518E1
3.570598643E0,-2.852092683E-1,9.008184075E-1,1.227926159E1
3.572607236E0,-2.202665508E-1,9.247604012E-1,1.213321590E1
3.574615830E0,-1.268926859E-1,9.510966539E-1,1.194377422E1
3.576624424E0,-4.309562966E-2,9.822212458E-1,1.180012226E1
3.578633018E0,0.000000000E0,1.013345838E0,1.174266148E1
3.580641611E0,5.985504389E-2,1.027711034E0,1.168759441E1
3.582650205E0,9.576806426E-2,1.049258947E0,1.168759441E1
3.584658799E0,1.364694983E-1,1.054047346E0,1.166125870E1
3.586667393E0,1.388636976E-1,1.080383539E0,1.177857494E1
3.588675986E0,1.628057212E-1,1.094748735E0,1.193180370E1
3.590684580E0,1.005564705E-1,1.013345838E0,1.197250462E1
3.592693174E0,3.591302410E-2,9.080010056E-1,1.202757168E1
3.594701768E0,7.182605099E-3,8.457517624E-1,1.189828491E1
3.596710361E0,2.873042040E-2,8.071452379E-1,1.177139187E1
3.598718955E0,4.788403213E-2,8.912416101E-1,1.185758305E1
3.600727549E0,1.005564705E-1,9.822212458E-1,1.190786171E1
3.602736143E0,1.412578970E-1,1.010951638E0,1.187194824E1
3.604744736E0,1.771709323E-1,1.061229944E0,1.183364105E1
3.606753330E0,2.370259613E-1,1.099537134E0,1.177857494E1
3.608761924E0,2.657563984E-1,1.154603720E0,1.171153736E1
3.610770518E0,3.043628931E-1,1.195305228E0,1.166365242E1
3.612779111E0,3.378817141E-1,1.243189216E0,1.163492203E1
3.614787705E0,3.666121364E-1,1.329380512E0,1.164689350E1
3.616796299E0,3.929483593E-1,1.389235497E0,1.170914268E1
3.618804893E0,4.001309574E-1,1.423053622E0,1.178096867E1
3.620813486E0,4.504092038E-1,1.480514526E0,1.180969906E1
3.622822080E0,4.982932210E-1,1.597830415E0,1.189828491E1
3.624830674E0,5.820902586E-1,1.660079598E0,1.197250462E1
3.626839268E0,6.634931564E-1,1.681627393E0,1.203236008E1
3.628847861E0,6.922235489E-1,1.679233193E0,1.194616890E1
3.630856455E0,6.970119476E-1,1.674444795E0,1.193419743E1
3.632865049E0,5.749076605E-1,1.595436215E0,1.187913132E1
3.634873643E0,5.557540655E-1,1.549946308E0,1.185758305E1
3.636882236E0,4.911106229E-1,1.537975311E0,1.183364105E1
3.638890830E0,2.828150690E-1,1.449389815E0,1.190307331E1
3.640899424E0,1.197100878E-1,1.413476825E0,1.184321785E1
3.642908018E0,8.858546615E-2,1.458966613E0,1.174744987E1
3.644916611E0,5.506663769E-2,1.456572413E0,1.168759441E1
3.646925205E0,7.422025502E-2,1.362899303E0,1.156309605E1
3.648933799E0,9.816227108E-2,1.226429820E0,1.140477943E1
3.650942393E0,1.412578970E-1,1.106719732E0,1.128746414E1
3.652950986E0,1.053448766E-1,9.870096445E-1,1.141675091E1
3.654959580E0,6.703764945E-2,8.071452379E-1,1.145745182E1
3.656968174E0,1.436521020E-2,6.850409508E-1,1.142393303E1
3.658976768E0,-7.182604820E-2,6.275801063E-1,1.133055973E1
3.660985361E0,-1.388636976E-1,5.629366636E-1,1.122521496E1
3.662993955E0,-1.747767180E-1,5.725134611E-1,1.147660542E1
3.665002549E0,-2.226607651E-1,5.701192617E-1,1.133774185E1
3.667011143E0,-1.747767180E-1,6.060323119E-1,1.120127296E1
3.669019736E0,-1.244984865E-1,5.940613151E-1,1.122042656E1
3.671028330E0,-1.244984865E-1,6.227917075E-1,1.140238571E1
3.673036924E0,-1.125274822E-1,6.060323119E-1,1.130661774E1
3.675045518E0,-5.506663769E-2,6.443395615E-1,1.099297714E1
3.677054111E0,5.027823523E-2,7.496843934E-1,1.111508179E1
3.679062705E0,7.900865376E-2,8.481459618E-1,1.109113979E1
3.681071299E0,3.830722719E-2,9.223662019E-1,1.105043793E1
3.683079893E0,-7.900865376E-2,8.960300088E-1,1.043722343E1
3.685088486E0,-1.412578970E-1,8.553285599E-1,9.605836868E0
3.687097080E0,-1.460463107E-1,9.080010056E-1,9.672874451E0
3.689105674E0,-4.309562966E-2,1.087566137E0,1.064551830E1
3.691114268E0,9.576806799E-3,1.176151633E0,1.107198620E1
3.693122861E0,3.591302410E-2,1.257554412E0,1.087775612E1
3.695131455E0,-1.675941236E-2,1.334168911E0,1.049707794E1
3.697140049E0,-5.746084079E-2,1.432630420E0,1.003709221E1
3.699148643E0,-1.340752989E-1,1.435024619E0,9.732728958E0
3.701157236E0,-2.178723514E-1,1.492485523E0,9.150638580E0
3.703165830E0,-1.556231081E-1,1.537975311E0,9.380781174E0
3.705174372E0,-1.747767180E-1,1.593041897E0,9.996390343E0
3.707182913E0,-7.182604820E-2,1.684021592E0,1.054017353E1
3.709191455E0,1.077390760E-1,1.815702677E0,1.070776749E1
3.711199997E0,2.370259613E-1,1.954566360E0,1.042525196E1
3.713208538E0,3.666121364E-1,2.038662672E0,1.077480507E1
3.715217080E0,3.570353389E-1,2.055422068E0,1.132577133E1
3.717225622E0,3.761889338E-1,2.115277290E0,1.107677460E1
3.719234163E0,4.073135555E-1,2.311601639E0,1.084902573E1
3.721242705E0,2.513911724E-1,2.414552450E0,1.077001667E1
3.723251247E0,1.173158810E-1,2.512714624E0,1.047313595E1
3.725259788E0,-1.197100803E-2,2.587234259E0,1.032200241E1
3.727268330E0,-1.436521020E-2,2.721309423E0,1.034354973E1
3.729276872E0,-8.858546615E-2,2.800318241E0,1.037706852E1
3.731285413E0,-1.316810995E-1,2.817077637E0,1.032679081E1
3.733293955E0,-1.005564705E-1,2.965517998E0,1.038425159E1
3.735302497E0,-2.585737705E-1,2.972700596E0,1.035312653E1
3.737311038E0,-4.049193561E-1,2.891297817E0,1.007300472E1
3.739319580E0,-3.019686937E-1,2.972700596E0,9.794978142E0
3.741328122E0,-3.259107172E-1,3.056497812E0,9.931747437E0
3.743336663E0,-3.929483593E-1,3.066074610E0,9.960477829E0
3.745345205E0,-4.073135555E-1,3.193266630E0,9.879075050E0
3.747353747E0,-4.528034031E-1,3.255515814E0,9.926959038E0
3.749362288E0,-4.887164235E-1,3.202843428E0,9.771036148E0
3.751370830E0,-3.402759135E-1,3.430292368E0,9.845556259E0
3.753379372E0,-3.402759135E-1,3.387196779E0,9.809343338E0
3.755387913E0,-3.977367580E-1,3.233968019E0,9.687239647E0
3.757396455E0,-2.178723514E-1,3.257910013E0,9.883863449E0
3.759404997E0,-1.268926859E-1,3.195660830E0,1.014483070E1
3.761413538E0,4.070143029E-2,3.212420225E0,1.037946320E1
3.763422080E0,4.025251567E-1,3.372831583E0,1.060002899E1
3.765430622E0,4.935048223E-1,3.387196779E0,1.067185497E1
3.767439163E0,5.964555144E-1,3.447052002E0,1.067664337E1
3.769447705E0,6.826467514E-1,3.494935989E0,1.054256821E1
3.771456247E0,6.874351501E-1,3.533243179E0,1.027411842E1
3.773464788E0,6.898293495E-1,3.550002575E0,1.012567711E1
3.775473330E0,6.563105583E-1,3.542819977E0,1.005624580E1
3.777481924E0,7.305307984E-1,3.684377193E0,9.953294754E0
3.779490518E0,8.768763542E-1,3.818452358E0,9.924564362E0
3.781499111E0,8.239046335E-1,3.760991573E0,9.847949982E0
3.783507705E0,6.515221596E-1,3.573944569E0,9.759065628E0
3.785516299E0,5.150526166E-1,3.466205597E0,9.713575363E0
3.787524893E0,1.149216816E-1,3.131017208E0,9.553164482E0
3.789533486E0,-3.522469103E-1,2.738068819E0,9.255983353E0
3.791542080E0,-3.330933154E-1,2.742857218E0,9.083600998E0
3.793550674E0,-1.292868853E-1,2.850596428E0,8.841787338E0
3.795559268E0,1.029506698E-1,3.030161619E0,8.606855392E0
3.797567861E0,4.336497784E-1,3.265092611E0,8.432079315E0
3.799576455E0,6.395511031E-1,3.411138773E0,8.254908562E0
3.801585049E0,7.784148455E-1,3.454234600E0,8.118139267E0
3.803593643E0,9.439139962E-1,3.540425777E0,8.060678482E0
3.805602236E0,1.087566137E0,3.530848980E0,7.998429298E0
3.807610830E0,1.288679123E0,3.640982151E0,8.017582893E0
3.809619424E0,1.391629696E0,3.722684383E0,7.979275703E0
3.811628018E0,1.374870300E0,3.708319187E0,7.902661324E0
3.813636611E0,1.415871024E0,3.777750969E0,7.809287548E0
3.815645205E0,1.353322506E0,3.782539368E0,7.718307495E0
3.817653799E0,1.374870300E0,3.890278578E0,7.589020729E0
3.819662393E0,1.468543410E0,4.074632168E0,7.495347500E0
3.821670986E0,1.561917305E0,4.280832767E0,7.361272335E0
3.823679580E0,1.662473798E0,4.493916512E0,7.220014572E0
3.825688174E0,1.944989562E0,4.882076740E0,7.198466778E0
3.827696768E0,2.084152699E0,5.157409668E0,7.112275600E0
3.829705361E0,1.947383761E0,5.102343082E0,6.973112583E0
3.831713955E0,1.746270895E0,5.061641693E0,6.939593792E0
3.833722549E0,1.674444795E0,5.169380665E0,7.119458199E0
3.835731143E0,1.490091324E0,5.250783443E0,7.231985569E0
3.837739736E0,1.499668121E0,5.392340660E0,7.473799706E0
3.839748330E0,1.466149211E0,5.526416302E0,7.713519096E0
3.841756924E0,1.300650120E0,5.533598900E0,7.888296127E0
3.843765518E0,9.965864420E-1,5.468955040E0,7.993640900E0
3.845774111E0,8.334814906E-1,5.500079632E0,8.108562469E0
3.847782705E0,6.036381125E-1,5.514444828E0,8.235754967E0
3.849791299E0,3.019686937E-1,5.490502834E0,8.242937088E0
3.851799893E0,1.987187415E-1,5.495291233E0,8.173505783E0
3.853808486E0,3.591302410E-2,5.495291233E0,8.240543365E0
3.855817080E0,-1.580173075E-1,5.528810501E0,8.087015152E0
3.857825674E0,-2.130839527E-1,5.521627903E0,8.058284760E0
3.859834268E0,-3.330933154E-1,5.562329292E0,8.089408875E0
3.861842861E0,-2.753331959E-1,5.691616058E0,8.108562469E0
3.863851455E0,-2.705447972E-1,5.713163853E0,8.098985672E0
3.865860049E0,-2.250549644E-1,5.732317448E0,8.142380714E0
3.867868643E0,-2.154781483E-2,5.828085423E0,8.307580948E0
3.869877236E0,1.149216816E-1,5.890334606E0,8.491933823E0
3.871885830E0,1.244984865E-1,5.784989834E0,8.508693695E0
3.873894424E0,6.943184882E-2,5.638943672E0,8.300397873E0
3.875903018E0,-2.394201700E-3,5.502473831E0,8.209418297E0
3.877911611E0,-1.077390760E-1,5.377975464E0,8.118139267E0
3.879920205E0,-4.144961834E-1,5.008969307E0,8.089408875E0
3.881928799E0,-5.892729163E-1,4.910807133E0,8.075043678E0
3.883937393E0,-6.658873558E-1,4.879682541E0,7.931391716E0
3.885945986E0,-7.855974436E-1,4.608838081E0,7.739855766E0
3.887954580E0,-8.553285599E-1,4.402936935E0,7.624933720E0
3.889963174E0,-8.406640887E-1,4.393360138E0,7.411550522E0
3.891971768E0,-8.382698894E-1,4.283226967E0,7.026083946E0
3.893980361E0,-7.999626398E-1,4.244919777E0,6.716932774E0
3.895988955E0,-8.167220354E-1,4.244919777E0,6.340744019E0
3.897997549E0,-7.616553903E-1,4.242525578E0,5.981613636E0
3.900006143E0,-6.419453025E-1,4.273650169E0,5.684433460E0
3.902014736E0,-5.749076605E-1,4.321534157E0,5.406705856E0
3.904023330E0,-3.211222887E-1,4.477157116E0,5.207687855E0
3.906031924E0,-9.816227108E-2,4.589684486E0,5.083189487E0
3.908040518E0,2.226607651E-1,4.829403877E0,4.999392509E0
3.910049111E0,4.575918019E-1,4.994604111E0,4.985027313E0
3.912057705E0,4.144961834E-1,5.018546104E0,4.929960728E0
3.914066299E0,5.844845176E-1,5.236418247E0,4.939537525E0
3.916074893E0,6.227917075E-1,5.329792023E0,4.963479519E0
3.918083486E0,7.664438486E-1,5.552752495E0,4.975450516E0
3.920092080E0,7.903858423E-1,5.650914669E0,5.004180908E0
3.922100674E0,1.003769040E0,5.921758652E0,5.080795288E0
3.924109268E0,9.654618502E-1,6.017526627E0,5.116708279E0
3.926117861E0,1.049258947E0,6.173149586E0,5.193322659E0
3.928126403E0,1.056441545E0,6.309619427E0,5.356427670E0
3.930134945E0,1.276708007E0,6.625953197E0,5.250783443E0
3.932143486E0,1.626560807E0,7.093122005E0,5.238812447E0
3.934152028E0,1.660079598E0,7.279869556E0,5.310638428E0
3.936160570E0,1.545157909E0,7.334936142E0,5.385158062E0
3.938169111E0,1.341351509E0,7.313388348E0,5.488108635E0
3.940177653E0,1.324592113E0,7.593809128E0,5.629366875E0
3.942186195E0,1.075595140E0,7.598597527E0,5.617395878E0
3.944194736E0,7.832032442E-1,7.461828709E0,5.744288445E0
3.946203278E0,6.203975081E-1,7.737461567E0,5.624578476E0
3.948211820E0,4.575918019E-1,7.636904716E0,5.418676853E0
3.950220361E0,4.097077549E-1,7.612962723E0,5.411494255E0
3.952228903E0,3.378817141E-1,7.790133953E0,5.456984043E0
3.954237445E0,2.130839527E-1,7.940968513E0,5.373187065E0
3.956245986E0,1.436520964E-1,7.952939510E0,5.269937038E0
3.958254528E0,-4.788403213E-2,7.581838131E0,5.516839504E0
3.960263070E0,-1.556231081E-1,7.782951355E0,5.863998413E0
3.962271611E0,-1.795651317E-1,7.960122108E0,5.679645061E0
3.964280153E0,-2.681505978E-1,7.579144955E0,5.758653641E0
3.966288695E0,-3.091512918E-1,7.610568523E0,5.868786812E0
3.968297236E0,-3.211222887E-1,7.689577103E0,5.878363609E0
3.970305778E0,-3.498527110E-1,7.600991726E0,5.885546207E0
3.972314320E0,-4.384381771E-1,7.454646111E0,6.022315025E0
3.974322861E0,-4.958990216E-1,7.454646111E0,6.082170010E0
3.976331403E0,-4.264671803E-1,7.454646111E0,5.974431038E0
3.978339945E0,-5.389946699E-1,7.105093002E0,5.950489044E0
3.980348486E0,-6.036381125E-1,7.150582790E0,5.981613636E0
3.982357028E0,-6.634931564E-1,7.186495781E0,5.844844818E0
3.984365570E0,-7.257423997E-1,7.100304604E0,5.646126270E0
3.986374111E0,-7.544727921E-1,7.133823395E0,5.301061630E0
3.988382653E0,-8.505401611E-1,7.073968410E0,5.059247494E0
3.990391195E0,-9.247604012E-1,6.989871979E0,4.920383930E0
3.992399736E0,-9.822212458E-1,7.028478146E0,4.742913723E0
3.994408278E0,-8.191162348E-1,7.272686958E0,4.560954094E0
3.996416820E0,-8.960300088E-1,7.042843342E0,4.247313976E0
3.998425361E0,-8.960300088E-1,6.874950409E0,4.024353981E0
4.000433955E0,-7.784148455E-1,6.975506783E0,3.832817554E0
4.002442549E0,-7.113772035E-1,6.951564789E0,3.547608376E0
4.004451143E0,-5.413888693E-1,6.982689381E0,3.365648985E0
4.006459736E0,-3.139396906E-1,7.172130585E0,3.164535999E0
4.008468330E0,-3.163338900E-1,7.282263756E0,2.785953045E0
4.010476924E0,-6.251859069E-1,7.380425930E0,1.700780988E0
4.012485518E0,-9.582792521E-1,7.299023151E0,7.233482003E-1
4.014494111E0,-6.970119476E-1,6.810306549E0,2.560898066E0
4.016502705E0,-3.330933154E-1,6.625953197E0,3.770568371E0
4.018511299E0,-2.035071403E-1,6.927622795E0,3.087622404E0
4.020519893E0,-1.101332754E-1,7.208043575E0,2.805106640E0
4.022528486E0,5.027823523E-2,8.084620476E0,5.629366875E0
4.024537080E0,-9.576806799E-3,8.901641846E0,4.788702488E0
4.026545674E0,-1.484405100E-1,9.050082207E0,4.160823345E0
4.028554268E0,-2.876034677E-1,8.288427353E0,4.252102375E0
4.030562861E0,-5.294178724E-1,8.159140587E0,3.945345163E0
4.032571455E0,-7.448959947E-1,8.506299019E0,3.863942385E0
4.034580049E0,-8.553285599E-1,8.388983727E0,3.933374166E0
4.036588643E0,-8.382698894E-1,8.372223854E0,3.713107586E0
4.038597236E0,-7.089830041E-1,8.707711220E0,3.526060581E0
4.040605830E0,-5.366004705E-1,8.697835922E0,3.480570793E0
4.042614424E0,-3.426701128E-1,8.614038467E0,3.372831583E0
4.044623018E0,-1.651999205E-1,8.666710854E0,3.241150618E0
4.046631611E0,-5.746084079E-2,8.566154480E0,3.238756418E0
4.048640205E0,0.000000000E0,8.520664215E0,3.312976599E0
4.050648799E0,1.005564705E-1,8.594884872E0,3.358466387E0
4.052657393E0,1.460463107E-1,8.606855392E0,3.399167776E0
4.054665986E0,1.747767180E-1,8.633192062E0,3.312976599E0
4.056674580E0,1.484405100E-1,8.585308075E0,3.277063608E0
4.058683174E0,8.619125932E-2,8.621220589E0,3.363254786E0
4.060691768E0,5.506663769E-2,8.693047523E0,3.344101191E0
4.062700361E0,-6.224924326E-2,8.664317131E0,3.279457808E0
4.064708955E0,-1.867477298E-1,8.676287651E0,3.181295395E0
4.066717549E0,-2.971802950E-1,8.606855392E0,3.070863008E0
4.068726143E0,-4.097077549E-1,8.594884872E0,3.034950018E0
4.070734736E0,-5.174468160E-1,8.618826866E0,2.955941200E0
4.072743330E0,-6.012439132E-1,8.673893929E0,2.766799450E0
4.074751924E0,-5.940613151E-1,8.805873871E0,2.687790632E0
4.076760518E0,-5.533598661E-1,8.870517731E0,2.534561872E0
4.078769111E0,-5.892729163E-1,8.846575737E0,2.421735048E0
4.080777705E0,-5.940613151E-1,8.810662270E0,2.309207439E0
4.082786299E0,-5.629366636E-1,8.817844391E0,2.311601639E0
4.084794893E0,-4.599860013E-1,8.880094528E0,2.395398855E0
4.086803486E0,-3.546411395E-1,8.944737434E0,2.495955229E0
4.088812080E0,-2.899976671E-1,8.947132111E0,2.611176252E0
4.090820674E0,-2.250549644E-1,8.963891029E0,2.790741444E0
4.092829268E0,-1.580173075E-1,8.932766914E0,2.831442833E0
4.094837861E0,-4.548983276E-2,8.949525833E0,2.718915224E0
4.096846455E0,-9.576806799E-3,8.985439301E0,2.544138670E0
4.098855049E0,1.197100803E-2,9.054870605E0,2.395398855E0
4.100863643E0,-9.337386489E-2,9.023746490E0,2.292448044E0
4.102872236E0,-1.436520964E-1,9.066842079E0,2.189497471E0
4.104880830E0,-3.881599605E-1,8.978256226E0,2.060210466E0
4.106889424E0,-4.575918019E-1,9.011775017E0,1.887528777E0
4.108898018E0,-4.623802006E-1,9.102754593E0,1.700780988E0
4.110906611E0,-5.006874204E-1,9.117119789E0,1.542763710E0
4.112915205E0,-4.695627987E-1,9.184157372E0,1.430236220E0
4.114923799E0,-4.312555790E-1,9.198522568E0,1.365293503E0
4.116932393E0,-3.330933154E-1,9.244012833E0,1.374870300E0
4.118940986E0,-3.043628931E-1,9.198522568E0,1.360505104E0
4.120949580E0,-1.771709323E-1,9.270648003E0,1.365293503E0
4.122958174E0,-9.576806426E-2,9.260771751E0,1.348534107E0
4.124966768E0,2.873042040E-2,9.335291862E0,1.331774712E0
4.126975361E0,1.268926859E-1,9.356839180E0,1.394023895E0
4.128983955E0,2.489969730E-1,9.361627579E0,1.473331928E0
4.130992549E0,2.011129409E-1,9.270648003E0,1.535581112E0
4.133001143E0,2.106897533E-1,9.347262383E0,1.588253498E0
4.135009736E0,2.082955539E-1,9.347262383E0,1.583465099E0
4.137018330E0,2.561795712E-1,9.395146370E0,1.585859299E0
4.139026924E0,2.729389966E-1,9.409511566E0,1.602618814E0
4.141035518E0,2.777273953E-1,9.457395554E0,1.710357785E0
4.143044111E0,3.019686937E-1,9.416694641E0,1.767818689E0
4.145052705E0,3.642179370E-1,9.428665161E0,1.660079598E0
4.147061299E0,4.575918019E-1,9.466972351E0,1.499668121E0
4.149069841E0,4.743511975E-1,9.524434090E0,1.382052898E0
4.151078382E0,5.796960592E-1,9.589076996E0,1.338957310E0
4.153086924E0,6.251859069E-1,9.545981407E0,1.331774712E0
4.155095466E0,6.946177483E-1,9.581894875E0,1.386841297E0
4.157104007E0,7.041945457E-1,9.534010887E0,1.470937610E0
4.159112549E0,7.353191972E-1,9.538799286E0,1.614589810E0
4.161121091E0,7.903858423E-1,9.581894875E0,1.791760683E0
4.163129632E0,7.736264467E-1,9.586683273E0,1.940201163E0
4.165138174E0,7.305307984E-1,9.574711800E0,2.112883091E0
4.167146716E0,7.113772035E-1,9.620202065E0,2.232593060E0
4.169155257E0,5.796960592E-1,9.567529678E0,2.256535053E0
4.171163799E0,5.820902586E-1,9.656114578E0,2.196680069E0
4.173172341E0,5.557540655E-1,9.687239647E0,2.100912094E0
4.175180882E0,4.839280248E-1,9.651326180E0,1.976413488E0
4.177189424E0,4.216787815E-1,9.651326180E0,1.901893973E0
4.179197966E0,3.857657611E-1,9.723152161E0,1.808520079E0
4.181206507E0,2.777273953E-1,9.687239647E0,1.710357785E0
4.183215049E0,2.681505978E-1,9.715970039E0,1.624166608E0
4.185223591E0,1.651999205E-1,9.696816444E0,1.614589810E0
4.187232132E0,1.029506698E-1,9.687239647E0,1.667262197E0
4.189240674E0,1.316810995E-1,9.744700432E0,1.830067873E0
4.191249216E0,1.292868853E-1,9.677662849E0,1.997961283E0
4.193257757E0,1.340752989E-1,9.608230591E0,2.177526474E0
4.195266299E0,1.891419291E-1,9.653720856E0,2.282871246E0
4.197274841E0,2.250549644E-1,9.668086052E0,2.342726469E0
4.199283382E0,2.899976671E-1,9.646537781E0,2.290053844E0
4.201291924E0,3.666121364E-1,9.543587685E0,2.215833664E0
4.203300466E0,3.690063357E-1,9.380781174E0,2.086546898E0
4.205309007E0,4.240729809E-1,9.452607155E0,1.887528777E0
4.207317549E0,4.288613796E-1,9.462183952E0,1.657685399E0
4.209326091E0,4.575918019E-1,9.462183952E0,1.418265224E0
4.211334632E0,5.389946699E-1,9.524434090E0,1.147421122E0
4.213343174E0,6.299743056E-1,9.553164482E0,8.768763542E-1
4.215351716E0,7.113772035E-1,9.548376083E0,7.065888047E-1
4.217360257E0,8.119336367E-1,9.510068893E0,5.342062712E-1
4.219368799E0,8.840589523E-1,9.548376083E0,4.432265759E-1
4.221377393E0,9.894038439E-1,9.545981407E0,4.288613796E-1
4.223385986E0,1.101931334E0,9.569923401E0,4.647744000E-1
4.225394580E0,1.183334231E0,9.627384186E0,5.270236731E-1
4.227403174E0,1.240795016E0,9.613018990E0,5.796960592E-1
4.229411768E0,1.267131209E0,9.605836868E0,7.113772035E-1
4.231420361E0,1.276708007E0,9.574711800E0,8.649053574E-1
4.233428955E0,1.245583415E0,9.572318077E0,1.006163239E0
4.235437549E0,1.192911029E0,9.586683273E0,1.128267527E0
4.237446143E0,1.113902330E0,9.620202065E0,1.192911029E0
4.239454736E0,1.013345838E0,9.613018990E0,1.221641421E0
