"Time (s)","Gyroscope x (rad/s)","Gyroscope y (rad/s)","Gyroscope z (rad/s)"
9.974458000E-2,-3.861469682E-3,-8.921326138E-3,1.198387123E-3
1.017665070E-1,-3.861469682E-3,-6.790860556E-3,-1.997311832E-3
1.037886950E-1,-3.861469682E-3,-3.595161485E-3,1.331541280E-4
1.058041630E-1,-3.861469682E-3,-2.529928461E-3,-9.320789250E-4
1.078127570E-1,-4.926702939E-3,-2.529928461E-3,1.331541280E-4
1.098213510E-1,-1.731003635E-3,-3.595161485E-3,-9.320789250E-4
1.118298930E-1,-1.731003635E-3,-2.529928461E-3,1.331541280E-4
1.138384340E-1,-6.657706108E-4,-1.464695437E-3,1.331541280E-4
1.158469760E-1,-3.861469682E-3,-1.464695437E-3,1.331541280E-4
1.178555180E-1,-6.657706108E-4,6.657706108E-4,-9.320789250E-4
1.198640590E-1,-6.657706108E-4,6.657706108E-4,-9.320789250E-4
1.218726010E-1,-2.796236658E-3,-3.994623839E-4,1.331541280E-4
1.238811430E-1,3.994623839E-4,1.731003635E-3,1.198387123E-3
1.258896840E-1,-6.657706108E-4,1.731003635E-3,-9.320789250E-4
1.278982260E-1,3.994623839E-4,3.861469682E-3,1.331541280E-4
1.299067680E-1,-6.657706108E-4,3.861469682E-3,-9.320789250E-4
1.319153090E-1,3.994623839E-4,3.861469682E-3,-1.997311832E-3
1.339238510E-1,3.994623839E-4,4.926702939E-3,1.331541280E-4
1.359323930E-1,2.529928461E-3,4.926702939E-3,1.331541280E-4
1.379409340E-1,1.464695437E-3,3.861469682E-3,1.331541280E-4
1.399494760E-1,1.464695437E-3,4.926702939E-3,1.331541280E-4
1.419580180E-1,2.529928461E-3,4.926702939E-3,-9.320789250E-4
1.439665590E-1,3.595161485E-3,4.926702939E-3,-9.320789250E-4
1.459751010E-1,3.994623839E-4,6.657706108E-4,-1.997311832E-3
1.479836430E-1,3.994623839E-4,6.657706108E-4,1.331541280E-4
1.499921840E-1,-6.657706108E-4,6.657706108E-4,-9.320789250E-4
1.520007260E-1,2.529928461E-3,1.731003635E-3,1.198387123E-3
1.540092680E-1,3.994623839E-4,4.926702939E-3,-9.320789250E-4
1.560178090E-1,2.529928461E-3,5.991935730E-3,-9.320789250E-4
1.580263510E-1,1.464695437E-3,3.861469682E-3,-9.320789250E-4
1.600348930E-1,1.464695437E-3,4.926702939E-3,1.331541280E-4
1.620434340E-1,2.529928461E-3,2.796236658E-3,2.263620263E-3
1.640519760E-1,-6.657706108E-4,3.861469682E-3,-9.320789250E-4
1.660605180E-1,3.595161485E-3,2.796236658E-3,-9.320789250E-4
1.680690590E-1,1.464695437E-3,3.861469682E-3,1.331541280E-4
1.700776010E-1,3.595161485E-3,3.861469682E-3,1.331541280E-4
1.720861430E-1,2.529928461E-3,2.796236658E-3,1.198387123E-3
1.740946840E-1,4.660394508E-3,4.926702939E-3,1.198387123E-3
1.761032260E-1,3.595161485E-3,5.991935730E-3,1.198387123E-3
1.781117680E-1,2.529928461E-3,5.991935730E-3,1.331541280E-4
1.801203090E-1,2.529928461E-3,4.926702939E-3,1.331541280E-4
1.821288510E-1,2.529928461E-3,4.926702939E-3,-9.320789250E-4
1.841373930E-1,1.464695437E-3,3.861469682E-3,1.331541280E-4
1.861459860E-1,2.529928461E-3,3.861469682E-3,1.331541280E-4
1.881545800E-1,3.595161485E-3,3.861469682E-3,1.331541280E-4
1.901631740E-1,2.529928461E-3,1.731003635E-3,1.331541280E-4
1.921717680E-1,3.595161485E-3,2.796236658E-3,-9.320789250E-4
1.941803610E-1,2.529928461E-3,6.657706108E-4,-9.320789250E-4
1.961889550E-1,-6.657706108E-4,1.731003635E-3,1.331541280E-4
1.981975490E-1,1.464695437E-3,2.796236658E-3,-1.997311832E-3
2.002061430E-1,3.994623839E-4,2.796236658E-3,1.331541280E-4
2.022147360E-1,3.595161485E-3,1.731003635E-3,-9.320789250E-4
2.042233300E-1,2.529928461E-3,2.796236658E-3,1.331541280E-4
2.062319240E-1,4.660394508E-3,6.657706108E-4,1.331541280E-4
2.082405180E-1,2.529928461E-3,2.796236658E-3,-9.320789250E-4
2.102491110E-1,1.464695437E-3,6.657706108E-4,1.331541280E-4
2.122577050E-1,1.464695437E-3,6.657706108E-4,1.331541280E-4
2.142662990E-1,2.529928461E-3,1.731003635E-3,1.331541280E-4
2.162748930E-1,1.464695437E-3,6.657706108E-4,-9.320789250E-4
2.182834860E-1,3.595161485E-3,3.861469682E-3,1.331541280E-4
2.202920800E-1,2.529928461E-3,1.731003635E-3,1.331541280E-4
2.223006740E-1,4.660394508E-3,6.657706108E-4,-9.320789250E-4
2.243092680E-1,2.529928461E-3,1.731003635E-3,1.331541280E-4
2.263178610E-1,2.529928461E-3,6.657706108E-4,-9.320789250E-4
2.283264550E-1,-6.657706108E-4,-1.464695437E-3,1.331541280E-4
2.303350490E-1,1.464695437E-3,-3.994623839E-4,-9.320789250E-4
2.323436430E-1,1.464695437E-3,-3.994623839E-4,1.198387123E-3
2.343522360E-1,1.464695437E-3,-3.994623839E-4,-9.320789250E-4
2.363608300E-1,1.464695437E-3,6.657706108E-4,1.331541280E-4
2.383694240E-1,2.529928461E-3,-3.994623839E-4,-9.320789250E-4
2.403780180E-1,1.464695437E-3,6.657706108E-4,-9.320789250E-4
2.423866110E-1,-6.657706108E-4,-3.994623839E-4,-9.320789250E-4
2.443952050E-1,-6.657706108E-4,-3.994623839E-4,1.331541280E-4
2.464037990E-1,3.994623839E-4,-2.529928461E-3,-9.320789250E-4
2.484123930E-1,-6.657706108E-4,-2.529928461E-3,1.331541280E-4
2.504209860E-1,-6.657706108E-4,-1.464695437E-3,-9.320789250E-4
2.524295800E-1,4.660394508E-3,-1.464695437E-3,1.331541280E-4
2.544381740E-1,1.464695437E-3,-2.529928461E-3,1.331541280E-4
2.564467680E-1,-6.657706108E-4,-1.464695437E-3,1.331541280E-4
2.584553610E-1,-1.731003635E-3,-2.529928461E-3,-1.997311832E-3
2.604639550E-1,-1.731003635E-3,-2.529928461E-3,1.331541280E-4
2.624725490E-1,-1.731003635E-3,-2.529928461E-3,-1.997311832E-3
2.644811430E-1,1.464695437E-3,-1.464695437E-3,-9.320789250E-4
2.664897360E-1,-6.657706108E-4,-1.464695437E-3,-9.320789250E-4
2.684983300E-1,-2.796236658E-3,-1.464695437E-3,-9.320789250E-4
2.705069240E-1,-6.657706108E-4,-1.464695437E-3,1.331541280E-4
2.725155180E-1,-6.657706108E-4,-1.464695437E-3,-9.320789250E-4
2.745241110E-1,-6.657706108E-4,-2.529928461E-3,-9.320789250E-4
2.765327050E-1,-6.657706108E-4,-3.994623839E-4,1.198387123E-3
2.785412990E-1,-1.731003635E-3,-3.994623839E-4,1.331541280E-4
2.805498930E-1,-6.657706108E-4,-3.994623839E-4,1.198387123E-3
2.825584860E-1,-6.657706108E-4,-3.994623839E-4,1.331541280E-4
2.845670800E-1,-6.657706108E-4,-3.994623839E-4,-9.320789250E-4
2.865756740E-1,-6.657706108E-4,-3.994623839E-4,-1.997311832E-3
2.885842680E-1,-1.731003635E-3,6.657706108E-4,1.331541280E-4
2.905928610E-1,-1.731003635E-3,-3.994623839E-4,1.331541280E-4
2.926014550E-1,-3.861469682E-3,6.657706108E-4,-9.320789250E-4
2.946100490E-1,-6.657706108E-4,-3.994623839E-4,-9.320789250E-4
2.966186430E-1,-1.731003635E-3,6.657706108E-4,1.331541280E-4
2.986272360E-1,-6.657706108E-4,1.731003635E-3,1.331541280E-4
3.006358300E-1,-2.796236658E-3,6.657706108E-4,-9.320789250E-4
3.026444240E-1,-3.861469682E-3,-3.994623839E-4,1.198387123E-3
3.046530180E-1,-3.861469682E-3,1.731003635E-3,-9.320789250E-4
3.066616110E-1,-1.731003635E-3,-3.994623839E-4,1.198387123E-3
3.086702050E-1,-4.926702939E-3,-1.464695437E-3,-9.320789250E-4
3.106787990E-1,-2.796236658E-3,-1.464695437E-3,-9.320789250E-4
3.126873930E-1,-6.657706108E-4,-1.464695437E-3,-9.320789250E-4
3.146959860E-1,-1.731003635E-3,-3.994623839E-4,-9.320789250E-4
3.167045800E-1,-2.796236658E-3,-3.595161485E-3,1.331541280E-4
3.187131740E-1,-5.991935730E-3,-2.529928461E-3,-9.320789250E-4
3.207217680E-1,-3.861469682E-3,-4.660394508E-3,1.331541280E-4
3.227303610E-1,-2.796236658E-3,-6.790860556E-3,1.331541280E-4
3.247389550E-1,-3.861469682E-3,-4.660394508E-3,1.331541280E-4
3.267475490E-1,-2.796236658E-3,-5.725627299E-3,1.331541280E-4
3.287561430E-1,-2.796236658E-3,-5.725627299E-3,1.331541280E-4
3.307647360E-1,-2.796236658E-3,-5.725627299E-3,1.331541280E-4
3.327733300E-1,-4.926702939E-3,-5.725627299E-3,-9.320789250E-4
3.347819240E-1,-4.926702939E-3,-4.660394508E-3,1.331541280E-4
3.367905180E-1,-4.926702939E-3,-3.595161485E-3,-9.320789250E-4
3.387990590E-1,-2.796236658E-3,-3.595161485E-3,-9.320789250E-4
3.408076010E-1,-3.861469682E-3,-5.725627299E-3,1.331541280E-4
3.428161430E-1,-2.796236658E-3,-3.595161485E-3,1.331541280E-4
3.448246840E-1,-3.861469682E-3,-3.595161485E-3,-9.320789250E-4
3.468332260E-1,-2.796236658E-3,-3.595161485E-3,1.331541280E-4
3.488417680E-1,-2.796236658E-3,-5.725627299E-3,-9.320789250E-4
3.508503090E-1,-2.796236658E-3,-6.790860556E-3,1.198387123E-3
3.528588510E-1,-1.731003635E-3,-6.790860556E-3,-9.320789250E-4
3.548673930E-1,-1.731003635E-3,-4.660394508E-3,1.331541280E-4
3.568759340E-1,-1.731003635E-3,-6.790860556E-3,1.331541280E-4
3.588844760E-1,-2.796236658E-3,-6.790860556E-3,1.198387123E-3
3.608930180E-1,-1.731003635E-3,-5.725627299E-3,-9.320789250E-4
3.629015590E-1,-1.731003635E-3,-4.660394508E-3,1.331541280E-4
3.649101010E-1,-1.731003635E-3,-3.595161485E-3,-9.320789250E-4
3.669186430E-1,3.994623839E-4,1.731003635E-3,1.331541280E-4
3.689271840E-1,-6.657706108E-4,2.796236658E-3,1.331541280E-4
3.709357260E-1,3.994623839E-4,3.861469682E-3,1.198387123E-3
3.729442680E-1,2.529928461E-3,5.991935730E-3,1.198387123E-3
3.749528090E-1,1.464695437E-3,4.926702939E-3,-9.320789250E-4
3.769613510E-1,-6.657706108E-4,5.991935730E-3,-1.997311832E-3
3.789698930E-1,3.994623839E-4,5.991935730E-3,-1.997311832E-3
3.809784340E-1,3.994623839E-4,3.861469682E-3,-9.320789250E-4
3.829869760E-1,3.994623839E-4,3.861469682E-3,1.331541280E-4
3.849955180E-1,2.529928461E-3,4.926702939E-3,1.331541280E-4
3.870040590E-1,3.595161485E-3,8.122402243E-3,-9.320789250E-4
3.890126010E-1,3.595161485E-3,8.122402243E-3,1.331541280E-4
3.910211430E-1,3.595161485E-3,7.057168987E-3,1.331541280E-4
3.930296840E-1,4.660394508E-3,9.187635034E-3,-9.320789250E-4
3.950382260E-1,2.529928461E-3,9.187635034E-3,-9.320789250E-4
3.970467680E-1,3.595161485E-3,1.025286783E-2,1.331541280E-4
3.990553090E-1,3.595161485E-3,1.025286783E-2,-9.320789250E-4
4.010638510E-1,4.660394508E-3,1.131810062E-2,1.198387123E-3
4.030723930E-1,3.595161485E-3,1.025286783E-2,1.198387123E-3
4.050809340E-1,6.790860556E-3,1.025286783E-2,1.198387123E-3
4.070894760E-1,3.595161485E-3,9.187635034E-3,1.331541280E-4
4.090980180E-1,4.660394508E-3,9.187635034E-3,1.331541280E-4
4.111065590E-1,3.595161485E-3,7.057168987E-3,1.198387123E-3
4.131151530E-1,1.464695437E-3,8.122402243E-3,-9.320789250E-4
4.151237470E-1,3.595161485E-3,7.057168987E-3,-9.320789250E-4
4.171323410E-1,3.595161485E-3,7.057168987E-3,1.331541280E-4
4.191409340E-1,2.529928461E-3,8.122402243E-3,1.331541280E-4
4.211495280E-1,4.660394508E-3,7.057168987E-3,-9.320789250E-4
4.231581220E-1,3.595161485E-3,5.991935730E-3,1.331541280E-4
4.251634860E-1,4.660394508E-3,8.122402243E-3,1.331541280E-4
4.271688510E-1,4.660394508E-3,4.926702939E-3,1.331541280E-4
4.291746320E-1,4.660394508E-3,5.991935730E-3,1.331541280E-4
4.311809340E-1,1.464695437E-3,4.926702939E-3,-9.320789250E-4
4.331883820E-1,2.529928461E-3,5.991935730E-3,1.331541280E-4
4.351969240E-1,2.529928461E-3,3.861469682E-3,1.331541280E-4
4.372090590E-1,2.529928461E-3,2.796236658E-3,-9.320789250E-4
4.392220800E-1,2.529928461E-3,2.796236658E-3,1.331541280E-4
4.412351530E-1,3.595161485E-3,6.657706108E-4,-9.320789250E-4
4.432450490E-1,1.464695437E-3,6.657706108E-4,-9.320789250E-4
4.452536430E-1,1.464695437E-3,-3.994623839E-4,-9.320789250E-4
4.472622360E-1,1.464695437E-3,-3.994623839E-4,1.331541280E-4
4.492707780E-1,-6.657706108E-4,-3.994623839E-4,-9.320789250E-4
4.512793200E-1,1.464695437E-3,-3.994623839E-4,1.331541280E-4
4.532878610E-1,1.464695437E-3,6.657706108E-4,1.331541280E-4
4.552964030E-1,-6.657706108E-4,6.657706108E-4,-9.320789250E-4
4.573049450E-1,1.464695437E-3,6.657706108E-4,1.331541280E-4
4.593134860E-1,1.464695437E-3,1.731003635E-3,1.331541280E-4
4.613220280E-1,2.529928461E-3,1.731003635E-3,1.331541280E-4
4.633305700E-1,1.464695437E-3,2.796236658E-3,1.331541280E-4
4.653391110E-1,3.595161485E-3,4.926702939E-3,-1.997311832E-3
4.673476530E-1,2.529928461E-3,2.796236658E-3,-9.320789250E-4
4.693561950E-1,1.464695437E-3,3.861469682E-3,-1.997311832E-3
4.713647360E-1,1.464695437E-3,4.926702939E-3,1.331541280E-4
4.733732780E-1,2.529928461E-3,2.796236658E-3,1.331541280E-4
4.753818200E-1,2.529928461E-3,3.861469682E-3,1.331541280E-4
4.773903610E-1,1.464695437E-3,1.731003635E-3,-9.320789250E-4
4.793989030E-1,2.529928461E-3,2.796236658E-3,1.331541280E-4
4.814074450E-1,-6.657706108E-4,1.731003635E-3,1.198387123E-3
4.834159860E-1,3.994623839E-4,1.731003635E-3,-9.320789250E-4
4.854245280E-1,3.994623839E-4,-1.464695437E-3,1.331541280E-4
4.874330700E-1,1.464695437E-3,-1.464695437E-3,-9.320789250E-4
4.894416110E-1,3.994623839E-4,1.731003635E-3,1.198387123E-3
4.914501530E-1,-6.657706108E-4,1.731003635E-3,-9.320789250E-4
4.934586950E-1,-6.657706108E-4,-3.994623839E-4,1.331541280E-4
4.954672360E-1,1.464695437E-3,-1.464695437E-3,-9.320789250E-4
4.974757780E-1,-1.731003635E-3,-3.994623839E-4,1.331541280E-4
4.994843200E-1,-1.731003635E-3,-1.464695437E-3,1.331541280E-4
5.014928610E-1,-1.731003635E-3,-1.464695437E-3,1.331541280E-4
5.035014030E-1,-6.657706108E-4,-1.464695437E-3,1.331541280E-4
5.055099450E-1,3.994623839E-4,-2.529928461E-3,1.331541280E-4
5.075184860E-1,3.994623839E-4,-1.464695437E-3,-1.997311832E-3
5.095270280E-1,-2.796236658E-3,6.657706108E-4,-9.320789250E-4
5.115355700E-1,1.464695437E-3,-1.464695437E-3,-9.320789250E-4
5.135441110E-1,-1.731003635E-3,-1.464695437E-3,-9.320789250E-4
5.155526530E-1,-1.731003635E-3,6.657706108E-4,-9.320789250E-4
5.175611950E-1,-2.796236658E-3,-1.464695437E-3,1.331541280E-4
5.195697360E-1,-6.657706108E-4,-3.994623839E-4,-1.997311832E-3
5.215783300E-1,-6.657706108E-4,1.731003635E-3,-9.320789250E-4
5.235869240E-1,3.994623839E-4,6.657706108E-4,1.331541280E-4
5.255955180E-1,3.994623839E-4,-1.464695437E-3,-9.320789250E-4
5.276041110E-1,-2.796236658E-3,-1.464695437E-3,-9.320789250E-4
5.296127050E-1,-2.796236658E-3,-3.994623839E-4,1.331541280E-4
5.316212990E-1,-1.731003635E-3,-1.464695437E-3,1.331541280E-4
5.336298930E-1,-1.731003635E-3,-3.994623839E-4,-9.320789250E-4
5.356384860E-1,-2.796236658E-3,-3.994623839E-4,1.331541280E-4
5.376470800E-1,-1.731003635E-3,-3.994623839E-4,-9.320789250E-4
5.396556740E-1,-6.657706108E-4,-3.994623839E-4,-9.320789250E-4
5.416642680E-1,3.994623839E-4,-3.994623839E-4,-9.320789250E-4
5.436728610E-1,3.994623839E-4,-3.994623839E-4,-9.320789250E-4
5.456814550E-1,-2.796236658E-3,6.657706108E-4,1.331541280E-4
5.476900490E-1,-2.796236658E-3,6.657706108E-4,1.198387123E-3
5.496986430E-1,-1.731003635E-3,6.657706108E-4,-9.320789250E-4
5.517072360E-1,-1.731003635E-3,1.731003635E-3,1.331541280E-4
5.537158300E-1,-6.657706108E-4,1.731003635E-3,-9.320789250E-4
5.557244240E-1,-6.657706108E-4,1.731003635E-3,1.331541280E-4
5.577330180E-1,-6.657706108E-4,2.796236658E-3,1.331541280E-4
5.597416110E-1,-6.657706108E-4,1.731003635E-3,-9.320789250E-4
5.617502050E-1,-3.861469682E-3,-1.464695437E-3,-9.320789250E-4
5.637587990E-1,-6.657706108E-4,6.657706108E-4,1.331541280E-4
5.657673930E-1,-2.796236658E-3,-3.994623839E-4,-9.320789250E-4
5.677759860E-1,-1.731003635E-3,-3.994623839E-4,1.331541280E-4
5.697845800E-1,-6.657706108E-4,-3.994623839E-4,1.331541280E-4
5.717931740E-1,-3.861469682E-3,6.657706108E-4,1.331541280E-4
5.738017680E-1,-6.657706108E-4,6.657706108E-4,-9.320789250E-4
5.758103610E-1,1.464695437E-3,1.731003635E-3,-9.320789250E-4
5.778189550E-1,3.994623839E-4,1.731003635E-3,-9.320789250E-4
5.798275490E-1,3.994623839E-4,2.796236658E-3,1.331541280E-4
5.818361430E-1,1.464695437E-3,2.796236658E-3,1.331541280E-4
5.838447360E-1,-1.731003635E-3,-3.994623839E-4,-9.320789250E-4
5.858533300E-1,1.464695437E-3,6.657706108E-4,1.198387123E-3
5.878619240E-1,-6.657706108E-4,-1.464695437E-3,1.331541280E-4
5.898705180E-1,-6.657706108E-4,-1.464695437E-3,-9.320789250E-4
5.918791110E-1,-3.861469682E-3,-1.464695437E-3,-9.320789250E-4
5.938877050E-1,3.994623839E-4,-1.464695437E-3,1.198387123E-3
5.958962990E-1,3.994623839E-4,-3.994623839E-4,1.331541280E-4
5.979048930E-1,-2.796236658E-3,-1.464695437E-3,1.198387123E-3
5.999134860E-1,-6.657706108E-4,-1.464695437E-3,1.331541280E-4
6.019220800E-1,-1.731003635E-3,-2.529928461E-3,1.331541280E-4
6.039306740E-1,-6.657706108E-4,-3.595161485E-3,1.331541280E-4
6.059392680E-1,-6.657706108E-4,-1.464695437E-3,-9.320789250E-4
6.079478610E-1,-1.731003635E-3,-2.529928461E-3,-1.997311832E-3
6.099564550E-1,-6.657706108E-4,-2.529928461E-3,-9.320789250E-4
6.119650490E-1,-1.731003635E-3,-2.529928461E-3,-9.320789250E-4
6.139736430E-1,-1.731003635E-3,-2.529928461E-3,1.331541280E-4
6.159822360E-1,-1.731003635E-3,-2.529928461E-3,-9.320789250E-4
6.179908300E-1,-1.731003635E-3,6.657706108E-4,-9.320789250E-4
6.199994240E-1,3.994623839E-4,-1.464695437E-3,-1.997311832E-3
6.220080180E-1,-2.796236658E-3,-3.994623839E-4,-9.320789250E-4
6.240166110E-1,-6.657706108E-4,-2.529928461E-3,-9.320789250E-4
6.260252050E-1,-6.657706108E-4,-3.994623839E-4,-1.997311832E-3
6.280337990E-1,-1.731003635E-3,-3.994623839E-4,1.331541280E-4
6.300423930E-1,-6.657706108E-4,-3.994623839E-4,1.331541280E-4
6.320509860E-1,-6.657706108E-4,6.657706108E-4,1.331541280E-4
6.340595800E-1,-6.657706108E-4,2.796236658E-3,-9.320789250E-4
6.360681740E-1,3.994623839E-4,6.657706108E-4,1.198387123E-3
6.380767680E-1,3.994623839E-4,1.731003635E-3,1.331541280E-4
6.400853610E-1,1.464695437E-3,1.731003635E-3,-9.320789250E-4
6.420939550E-1,-1.731003635E-3,2.796236658E-3,-9.320789250E-4
6.441025490E-1,3.994623839E-4,2.796236658E-3,-9.320789250E-4
6.461111430E-1,-6.657706108E-4,6.657706108E-4,1.331541280E-4
6.481197360E-1,-6.657706108E-4,1.731003635E-3,-9.320789250E-4
6.501283300E-1,3.994623839E-4,1.731003635E-3,1.331541280E-4
6.521369240E-1,-6.657706108E-4,1.731003635E-3,1.331541280E-4
6.541455180E-1,-6.657706108E-4,1.731003635E-3,1.198387123E-3
6.561541110E-1,-6.657706108E-4,1.731003635E-3,-9.320789250E-4
6.581627050E-1,-6.657706108E-4,-3.994623839E-4,1.331541280E-4
6.601712990E-1,3.994623839E-4,6.657706108E-4,1.331541280E-4
6.621798930E-1,-6.657706108E-4,-3.994623839E-4,-9.320789250E-4
6.641884860E-1,-1.731003635E-3,-1.464695437E-3,-9.320789250E-4
6.661970800E-1,3.994623839E-4,-3.994623839E-4,-1.997311832E-3
6.682056740E-1,-6.657706108E-4,-2.529928461E-3,-9.320789250E-4
6.702142680E-1,-2.796236658E-3,-3.595161485E-3,1.331541280E-4
6.722228610E-1,3.994623839E-4,-5.725627299E-3,1.331541280E-4
6.742314030E-1,3.994623839E-4,-3.595161485E-3,-9.320789250E-4
6.762399450E-1,-1.731003635E-3,-2.529928461E-3,1.331541280E-4
6.782484860E-1,-6.657706108E-4,-2.529928461E-3,-9.320789250E-4
6.802570280E-1,-6.657706108E-4,-3.595161485E-3,-9.320789250E-4
6.822655700E-1,3.994623839E-4,-1.464695437E-3,1.331541280E-4
6.842741110E-1,3.994623839E-4,-1.464695437E-3,-9.320789250E-4
6.862826530E-1,-6.657706108E-4,-1.464695437E-3,1.331541280E-4
6.882911950E-1,1.464695437E-3,6.657706108E-4,-1.997311832E-3
6.902997360E-1,-6.657706108E-4,6.657706108E-4,-9.320789250E-4
6.923082780E-1,1.464695437E-3,1.731003635E-3,-9.320789250E-4
6.943168200E-1,-6.657706108E-4,6.657706108E-4,-9.320789250E-4
6.963253610E-1,3.994623839E-4,2.796236658E-3,-9.320789250E-4
6.983339030E-1,3.994623839E-4,1.731003635E-3,1.331541280E-4
7.003424450E-1,3.994623839E-4,3.861469682E-3,-9.320789250E-4
7.023509860E-1,1.464695437E-3,3.861469682E-3,-9.320789250E-4
7.043595280E-1,3.994623839E-4,1.731003635E-3,1.331541280E-4
7.063680700E-1,3.994623839E-4,2.796236658E-3,-9.320789250E-4
7.083766110E-1,3.994623839E-4,1.731003635E-3,1.331541280E-4
7.103851530E-1,1.464695437E-3,6.657706108E-4,1.331541280E-4
7.123936950E-1,3.994623839E-4,-1.464695437E-3,-3.062544856E-3
7.144022360E-1,3.994623839E-4,6.657706108E-4,1.198387123E-3
7.164107780E-1,3.994623839E-4,6.657706108E-4,-9.320789250E-4
7.184193200E-1,1.464695437E-3,-1.464695437E-3,-9.320789250E-4
7.204278610E-1,3.994623839E-4,6.657706108E-4,1.331541280E-4
7.224364030E-1,-6.657706108E-4,-3.994623839E-4,1.331541280E-4
7.244449450E-1,-6.657706108E-4,-3.994623839E-4,1.331541280E-4
7.264534860E-1,-6.657706108E-4,-1.464695437E-3,1.331541280E-4
7.284620280E-1,-6.657706108E-4,-1.464695437E-3,1.331541280E-4
7.304705700E-1,-6.657706108E-4,-2.529928461E-3,-9.320789250E-4
7.324791110E-1,-2.796236658E-3,-2.529928461E-3,-1.997311832E-3
7.344876530E-1,-6.657706108E-4,-3.595161485E-3,1.331541280E-4
7.364961950E-1,-1.731003635E-3,-3.595161485E-3,1.198387123E-3
7.385047360E-1,-1.731003635E-3,-4.660394508E-3,2.263620263E-3
7.405132780E-1,3.994623839E-4,-4.660394508E-3,1.331541280E-4
7.425218200E-1,-2.796236658E-3,-4.660394508E-3,1.331541280E-4
7.445303610E-1,-6.657706108E-4,-4.660394508E-3,-1.997311832E-3
7.465389550E-1,-2.796236658E-3,-5.725627299E-3,1.331541280E-4
7.485475490E-1,-1.731003635E-3,-5.725627299E-3,-9.320789250E-4
7.505561430E-1,-1.731003635E-3,-6.790860556E-3,-9.320789250E-4
7.525647360E-1,-2.796236658E-3,-5.725627299E-3,-9.320789250E-4
7.545733300E-1,-6.657706108E-4,-5.725627299E-3,-9.320789250E-4
7.565819240E-1,-1.731003635E-3,-4.660394508E-3,-9.320789250E-4
7.585905180E-1,-2.796236658E-3,-3.595161485E-3,-9.320789250E-4
7.605991110E-1,-1.731003635E-3,-5.725627299E-3,1.331541280E-4
7.626077050E-1,-1.731003635E-3,-3.595161485E-3,1.198387123E-3
7.646162990E-1,-1.731003635E-3,-2.529928461E-3,1.331541280E-4
7.666248930E-1,-1.731003635E-3,-3.595161485E-3,1.331541280E-4
7.686334860E-1,-6.657706108E-4,-2.529928461E-3,-9.320789250E-4
7.706420800E-1,-6.657706108E-4,6.657706108E-4,1.331541280E-4
7.726506740E-1,-6.657706108E-4,-3.994623839E-4,-9.320789250E-4
7.746592680E-1,3.994623839E-4,-1.464695437E-3,1.331541280E-4
7.766678610E-1,1.464695437E-3,-3.994623839E-4,-9.320789250E-4
7.786764550E-1,-6.657706108E-4,-3.994623839E-4,1.331541280E-4
7.806850490E-1,-6.657706108E-4,-1.464695437E-3,-9.320789250E-4
7.826936430E-1,-6.657706108E-4,-2.529928461E-3,1.331541280E-4
7.847022360E-1,-2.796236658E-3,-3.595161485E-3,-9.320789250E-4
7.867108300E-1,-1.731003635E-3,-2.529928461E-3,-9.320789250E-4
7.887194240E-1,-2.796236658E-3,-3.595161485E-3,-9.320789250E-4
7.907280180E-1,-1.731003635E-3,-4.660394508E-3,1.198387123E-3
7.927366110E-1,-6.657706108E-4,-3.595161485E-3,-9.320789250E-4
7.947452050E-1,-1.731003635E-3,-4.660394508E-3,-9.320789250E-4
7.967537990E-1,-2.796236658E-3,-4.660394508E-3,-9.320789250E-4
7.987623930E-1,-1.731003635E-3,-3.595161485E-3,-1.997311832E-3
8.007709860E-1,-1.731003635E-3,-4.660394508E-3,-9.320789250E-4
8.027795800E-1,-6.657706108E-4,-5.725627299E-3,1.331541280E-4
8.047881740E-1,-6.657706108E-4,-5.725627299E-3,1.331541280E-4
8.067967680E-1,-6.657706108E-4,-5.725627299E-3,1.331541280E-4
8.088053610E-1,-1.731003635E-3,-5.725627299E-3,-9.320789250E-4
8.108139550E-1,-1.731003635E-3,-5.725627299E-3,1.331541280E-4
8.128225490E-1,-1.731003635E-3,-2.529928461E-3,1.198387123E-3
8.148311430E-1,-1.731003635E-3,-4.660394508E-3,1.331541280E-4
8.168397360E-1,-6.657706108E-4,-3.595161485E-3,1.331541280E-4
8.188483300E-1,-1.731003635E-3,-4.660394508E-3,1.198387123E-3
8.208569240E-1,-2.796236658E-3,-4.660394508E-3,-9.320789250E-4
8.228655180E-1,-1.731003635E-3,-4.660394508E-3,1.331541280E-4
8.248741110E-1,-6.657706108E-4,-3.595161485E-3,1.331541280E-4
8.268827050E-1,-6.657706108E-4,-3.595161485E-3,1.198387123E-3
8.288912990E-1,-6.657706108E-4,-3.595161485E-3,-9.320789250E-4
8.308998930E-1,-6.657706108E-4,-2.529928461E-3,-9.320789250E-4
8.329084860E-1,-6.657706108E-4,-1.464695437E-3,1.331541280E-4
8.349170800E-1,-1.731003635E-3,-3.994623839E-4,-9.320789250E-4
8.369256740E-1,3.994623839E-4,-3.994623839E-4,1.198387123E-3
8.389342680E-1,-1.731003635E-3,-3.994623839E-4,-9.320789250E-4
8.409428610E-1,-6.657706108E-4,-3.994623839E-4,1.331541280E-4
8.429514550E-1,-1.731003635E-3,-3.994623839E-4,1.331541280E-4
8.449600490E-1,3.994623839E-4,-1.464695437E-3,1.331541280E-4
8.469686430E-1,3.994623839E-4,-3.994623839E-4,1.198387123E-3
8.489772360E-1,3.994623839E-4,-1.464695437E-3,-9.320789250E-4
8.509858300E-1,-6.657706108E-4,-2.529928461E-3,1.331541280E-4
8.529944240E-1,-6.657706108E-4,-3.994623839E-4,1.198387123E-3
8.550030180E-1,1.464695437E-3,-3.994623839E-4,1.198387123E-3
8.570116110E-1,3.994623839E-4,-3.994623839E-4,1.198387123E-3
8.590202050E-1,-6.657706108E-4,-1.464695437E-3,-9.320789250E-4
8.610287990E-1,3.994623839E-4,-1.464695437E-3,1.331541280E-4
8.630373930E-1,-6.657706108E-4,-1.464695437E-3,1.331541280E-4
8.650459860E-1,-6.657706108E-4,-3.994623839E-4,1.198387123E-3
8.670545800E-1,-6.657706108E-4,6.657706108E-4,-9.320789250E-4
8.690631740E-1,3.994623839E-4,6.657706108E-4,-9.320789250E-4
8.710717680E-1,1.464695437E-3,6.657706108E-4,1.331541280E-4
8.730803610E-1,-1.731003635E-3,1.731003635E-3,-9.320789250E-4
8.750889550E-1,1.464695437E-3,6.657706108E-4,1.331541280E-4
8.770975490E-1,1.464695437E-3,6.657706108E-4,-9.320789250E-4
8.791061430E-1,3.994623839E-4,6.657706108E-4,1.331541280E-4
8.811147360E-1,-6.657706108E-4,-3.994623839E-4,1.198387123E-3
8.831233300E-1,-6.657706108E-4,1.731003635E-3,1.198387123E-3
8.851319240E-1,-6.657706108E-4,6.657706108E-4,-9.320789250E-4
8.871405180E-1,1.464695437E-3,1.731003635E-3,1.331541280E-4
8.891491110E-1,3.994623839E-4,1.731003635E-3,1.331541280E-4
8.911577050E-1,-6.657706108E-4,1.731003635E-3,1.331541280E-4
8.931662990E-1,3.994623839E-4,2.796236658E-3,-9.320789250E-4
8.951748930E-1,-6.657706108E-4,2.796236658E-3,1.331541280E-4
8.971834860E-1,1.464695437E-3,4.926702939E-3,1.331541280E-4
8.991920800E-1,1.464695437E-3,2.796236658E-3,1.198387123E-3
9.012006740E-1,3.994623839E-4,4.926702939E-3,1.331541280E-4
9.032092160E-1,1.464695437E-3,3.861469682E-3,-9.320789250E-4
9.052177570E-1,3.994623839E-4,3.861469682E-3,1.331541280E-4
9.072262990E-1,1.464695437E-3,3.861469682E-3,-9.320789250E-4
9.092348410E-1,-6.657706108E-4,3.861469682E-3,-9.320789250E-4
9.112433820E-1,3.994623839E-4,3.861469682E-3,1.198387123E-3
9.132519240E-1,3.994623839E-4,3.861469682E-3,1.331541280E-4
9.152604660E-1,2.529928461E-3,3.861469682E-3,1.331541280E-4
9.172690070E-1,1.464695437E-3,1.731003635E-3,-9.320789250E-4
9.192775490E-1,1.464695437E-3,3.861469682E-3,-1.997311832E-3
9.212860910E-1,3.994623839E-4,2.796236658E-3,-1.997311832E-3
9.232946320E-1,1.464695437E-3,2.796236658E-3,1.198387123E-3
9.253031740E-1,1.464695437E-3,1.731003635E-3,1.198387123E-3
9.273117160E-1,2.529928461E-3,6.657706108E-4,-1.997311832E-3
9.293202570E-1,-6.657706108E-4,6.657706108E-4,1.331541280E-4
9.313287990E-1,-2.796236658E-3,-1.464695437E-3,1.198387123E-3
9.333373410E-1,-6.657706108E-4,-1.464695437E-3,-9.320789250E-4
9.353458820E-1,-6.657706108E-4,-1.464695437E-3,-9.320789250E-4
9.373544240E-1,-1.731003635E-3,-2.529928461E-3,-9.320789250E-4
9.393629660E-1,-6.657706108E-4,-3.595161485E-3,-9.320789250E-4
9.413715070E-1,-6.657706108E-4,-4.660394508E-3,1.331541280E-4
9.433800490E-1,3.994623839E-4,-3.595161485E-3,-9.320789250E-4
9.453885910E-1,-6.657706108E-4,-5.725627299E-3,1.198387123E-3
9.473971320E-1,-6.657706108E-4,-3.595161485E-3,1.331541280E-4
9.494056740E-1,3.994623839E-4,-2.529928461E-3,-9.320789250E-4
9.514142160E-1,-1.731003635E-3,-4.660394508E-3,-9.320789250E-4
9.534227570E-1,3.994623839E-4,-4.660394508E-3,1.331541280E-4
9.554312990E-1,3.994623839E-4,-3.595161485E-3,1.331541280E-4
9.574398410E-1,-2.796236658E-3,-5.725627299E-3,-9.320789250E-4
9.594483820E-1,-1.731003635E-3,-3.595161485E-3,-9.320789250E-4
9.614569240E-1,3.994623839E-4,-3.595161485E-3,1.331541280E-4
9.634654660E-1,-6.657706108E-4,-3.595161485E-3,1.331541280E-4
9.654740070E-1,-1.731003635E-3,-4.660394508E-3,1.198387123E-3
9.674825490E-1,-1.731003635E-3,-3.595161485E-3,-9.320789250E-4
9.694910910E-1,-6.657706108E-4,-4.660394508E-3,1.331541280E-4
9.714996320E-1,1.464695437E-3,-4.660394508E-3,1.331541280E-4
9.735081740E-1,-1.731003635E-3,-3.595161485E-3,1.331541280E-4
9.755167680E-1,-6.657706108E-4,-2.529928461E-3,1.198387123E-3
9.775253610E-1,-2.796236658E-3,-2.529928461E-3,1.331541280E-4
9.795339550E-1,-6.657706108E-4,-3.994623839E-4,1.331541280E-4
9.815425490E-1,-1.731003635E-3,6.657706108E-4,1.331541280E-4
9.835511430E-1,3.994623839E-4,1.731003635E-3,1.198387123E-3
9.855597360E-1,-6.657706108E-4,6.657706108E-4,-9.320789250E-4
9.875683300E-1,3.994623839E-4,1.731003635E-3,1.331541280E-4
9.895769240E-1,3.994623839E-4,1.731003635E-3,-9.320789250E-4
9.915855180E-1,-6.657706108E-4,1.731003635E-3,-9.320789250E-4
9.935941110E-1,3.994623839E-4,6.657706108E-4,-9.320789250E-4
9.956027050E-1,-6.657706108E-4,-3.994623839E-4,1.198387123E-3
9.976112990E-1,-6.657706108E-4,-1.464695437E-3,-9.320789250E-4
9.996198930E-1,-6.657706108E-4,-1.464695437E-3,1.331541280E-4
1.001628486E0,1.464695437E-3,-2.529928461E-3,-9.320789250E-4
1.003637080E0,-1.731003635E-3,-1.464695437E-3,1.331541280E-4
1.005645674E0,3.994623839E-4,-1.464695437E-3,-1.997311832E-3
1.007654268E0,-6.657706108E-4,-1.464695437E-3,1.198387123E-3
1.009662861E0,-6.657706108E-4,-2.529928461E-3,-1.997311832E-3
1.011671455E0,-6.657706108E-4,-1.464695437E-3,-9.320789250E-4
1.013680049E0,-1.731003635E-3,-3.994623839E-4,-9.320789250E-4
1.015688643E0,-6.657706108E-4,-2.529928461E-3,1.331541280E-4
1.017697236E0,-6.657706108E-4,-1.464695437E-3,1.331541280E-4
1.019705830E0,-6.657706108E-4,-1.464695437E-3,1.198387123E-3
1.021714424E0,3.994623839E-4,-1.464695437E-3,1.331541280E-4
1.023723018E0,3.994623839E-4,-1.464695437E-3,-9.320789250E-4
1.025731611E0,-6.657706108E-4,-2.529928461E-3,-9.320789250E-4
1.027740205E0,-1.731003635E-3,-3.994623839E-4,1.331541280E-4
1.029748799E0,-1.731003635E-3,-1.464695437E-3,-9.320789250E-4
1.031757393E0,-1.731003635E-3,-3.994623839E-4,-1.997311832E-3
1.033765986E0,-6.657706108E-4,-3.994623839E-4,-9.320789250E-4
1.035774580E0,-1.731003635E-3,-3.994623839E-4,1.331541280E-4
1.037783174E0,-1.731003635E-3,-3.994623839E-4,-9.320789250E-4
1.039791768E0,-1.731003635E-3,-1.464695437E-3,1.331541280E-4
1.041800361E0,-6.657706108E-4,-2.529928461E-3,1.331541280E-4
1.043808955E0,-6.657706108E-4,-2.529928461E-3,-9.320789250E-4
1.045817549E0,-1.731003635E-3,-2.529928461E-3,1.331541280E-4
1.047826143E0,-1.731003635E-3,-2.529928461E-3,-9.320789250E-4
1.049834736E0,-6.657706108E-4,-1.464695437E-3,-9.320789250E-4
1.051843330E0,-1.731003635E-3,-2.529928461E-3,-9.320789250E-4
1.053851924E0,-2.796236658E-3,-1.464695437E-3,1.198387123E-3
1.055860518E0,-6.657706108E-4,-1.464695437E-3,1.331541280E-4
1.057869111E0,2.529928461E-3,-1.464695437E-3,1.198387123E-3
1.059877705E0,3.994623839E-4,-3.994623839E-4,1.198387123E-3
1.061886299E0,-1.731003635E-3,6.657706108E-4,1.331541280E-4
1.063894893E0,-6.657706108E-4,-3.994623839E-4,1.331541280E-4
1.065903486E0,-2.796236658E-3,-3.994623839E-4,1.331541280E-4
1.067912080E0,1.464695437E-3,-3.994623839E-4,1.331541280E-4
1.069920674E0,-6.657706108E-4,-1.464695437E-3,-1.997311832E-3
1.071929268E0,2.529928461E-3,1.731003635E-3,-9.320789250E-4
1.073937861E0,-6.657706108E-4,1.731003635E-3,1.198387123E-3
1.075946455E0,-6.657706108E-4,6.657706108E-4,1.331541280E-4
1.077955049E0,1.464695437E-3,6.657706108E-4,1.331541280E-4
1.079963643E0,-6.657706108E-4,6.657706108E-4,1.331541280E-4
1.081972236E0,-6.657706108E-4,6.657706108E-4,-9.320789250E-4
1.083980830E0,3.994623839E-4,6.657706108E-4,1.331541280E-4
1.085989424E0,-6.657706108E-4,2.796236658E-3,-9.320789250E-4
1.087998018E0,3.994623839E-4,1.731003635E-3,1.331541280E-4
1.090006611E0,1.464695437E-3,1.731003635E-3,1.331541280E-4
1.092015205E0,-6.657706108E-4,1.731003635E-3,-9.320789250E-4
1.094023799E0,-1.731003635E-3,-3.994623839E-4,-9.320789250E-4
1.096032393E0,3.994623839E-4,-3.994623839E-4,-9.320789250E-4
1.098040986E0,3.994623839E-4,-3.994623839E-4,-9.320789250E-4
1.100049580E0,3.994623839E-4,1.731003635E-3,1.331541280E-4
1.102058174E0,3.994623839E-4,-3.994623839E-4,1.331541280E-4
1.104066768E0,3.994623839E-4,-3.994623839E-4,1.331541280E-4
1.106075361E0,-6.657706108E-4,-3.994623839E-4,1.331541280E-4
1.108083955E0,3.994623839E-4,-3.994623839E-4,1.331541280E-4
1.110092549E0,3.994623839E-4,-3.994623839E-4,-9.320789250E-4
1.112101143E0,-1.731003635E-3,-1.464695437E-3,-9.320789250E-4
1.114109736E0,-6.657706108E-4,-3.994623839E-4,-9.320789250E-4
1.116118330E0,-6.657706108E-4,-3.994623839E-4,1.198387123E-3
1.118126924E0,-1.731003635E-3,-1.464695437E-3,2.263620263E-3
1.120135518E0,-1.731003635E-3,-3.994623839E-4,1.331541280E-4
1.122144111E0,-6.657706108E-4,-3.994623839E-4,-9.320789250E-4
1.124152705E0,3.994623839E-4,-2.529928461E-3,-9.320789250E-4
1.126161299E0,3.994623839E-4,-1.464695437E-3,-9.320789250E-4
1.128169893E0,-6.657706108E-4,-3.994623839E-4,1.331541280E-4
1.130178486E0,1.464695437E-3,-3.994623839E-4,1.331541280E-4
1.132187080E0,1.464695437E-3,-1.464695437E-3,-9.320789250E-4
1.134195622E0,-6.657706108E-4,-2.529928461E-3,1.331541280E-4
1.136204163E0,-6.657706108E-4,-3.994623839E-4,1.331541280E-4
1.138212705E0,-1.731003635E-3,1.731003635E-3,1.331541280E-4
1.140221247E0,3.994623839E-4,-3.994623839E-4,-9.320789250E-4
1.142229788E0,3.994623839E-4,-3.994623839E-4,1.331541280E-4
1.144238330E0,-6.657706108E-4,1.731003635E-3,-9.320789250E-4
1.146246872E0,3.994623839E-4,-3.994623839E-4,1.331541280E-4
1.148255413E0,-1.731003635E-3,-1.464695437E-3,1.331541280E-4
1.150263955E0,3.994623839E-4,-3.994623839E-4,-9.320789250E-4
1.152272497E0,3.994623839E-4,-1.464695437E-3,-1.997311832E-3
1.154281038E0,-6.657706108E-4,-2.529928461E-3,1.198387123E-3
1.156289580E0,-6.657706108E-4,-3.595161485E-3,-9.320789250E-4
1.158298122E0,3.994623839E-4,-2.529928461E-3,1.331541280E-4
1.160306663E0,-1.731003635E-3,-1.464695437E-3,1.198387123E-3
1.162315205E0,3.994623839E-4,-3.994623839E-4,-9.320789250E-4
1.164323747E0,3.994623839E-4,-1.464695437E-3,-9.320789250E-4
1.166332288E0,-1.731003635E-3,-1.464695437E-3,1.331541280E-4
1.168340830E0,-1.731003635E-3,-1.464695437E-3,1.331541280E-4
1.170349372E0,-6.657706108E-4,-2.529928461E-3,-9.320789250E-4
1.172357913E0,-6.657706108E-4,-1.464695437E-3,1.331541280E-4
1.174366455E0,-6.657706108E-4,-2.529928461E-3,-9.320789250E-4
1.176374997E0,-6.657706108E-4,-2.529928461E-3,1.198387123E-3
1.178383538E0,1.464695437E-3,-2.529928461E-3,1.331541280E-4
1.180392080E0,-6.657706108E-4,-3.595161485E-3,-9.320789250E-4
1.182400622E0,-6.657706108E-4,-3.994623839E-4,-1.997311832E-3
1.184409163E0,3.994623839E-4,-3.994623839E-4,1.331541280E-4
1.186417705E0,-6.657706108E-4,6.657706108E-4,-9.320789250E-4
1.188426247E0,-1.731003635E-3,-3.994623839E-4,1.331541280E-4
1.190434788E0,-1.731003635E-3,-3.994623839E-4,-1.997311832E-3
1.192443330E0,-1.731003635E-3,-3.994623839E-4,1.198387123E-3
1.194451872E0,-1.731003635E-3,-1.464695437E-3,1.331541280E-4
1.196460413E0,3.994623839E-4,6.657706108E-4,-9.320789250E-4
1.198468955E0,-6.657706108E-4,6.657706108E-4,1.331541280E-4
1.200477497E0,-6.657706108E-4,-3.994623839E-4,-9.320789250E-4
1.202486038E0,-6.657706108E-4,-1.464695437E-3,1.331541280E-4
1.204494580E0,-6.657706108E-4,-3.994623839E-4,1.331541280E-4
1.206503174E0,-6.657706108E-4,-3.994623839E-4,-1.997311832E-3
1.208511768E0,-6.657706108E-4,-1.464695437E-3,1.331541280E-4
1.210520361E0,-6.657706108E-4,-1.464695437E-3,1.331541280E-4
1.212528955E0,3.994623839E-4,-1.464695437E-3,1.331541280E-4
1.214537549E0,-6.657706108E-4,-1.464695437E-3,1.331541280E-4
1.216546143E0,3.994623839E-4,-2.529928461E-3,-9.320789250E-4
1.218554736E0,-6.657706108E-4,-3.994623839E-4,-9.320789250E-4
1.220563330E0,-6.657706108E-4,-3.994623839E-4,-9.320789250E-4
1.222571924E0,-6.657706108E-4,6.657706108E-4,1.331541280E-4
1.224580518E0,-1.731003635E-3,-1.464695437E-3,-9.320789250E-4
1.226589111E0,-1.731003635E-3,-3.994623839E-4,-9.320789250E-4
1.228597705E0,-6.657706108E-4,-3.994623839E-4,-9.320789250E-4
1.230606299E0,3.994623839E-4,6.657706108E-4,-9.320789250E-4
1.232614893E0,3.994623839E-4,-3.994623839E-4,-9.320789250E-4
1.234623486E0,-6.657706108E-4,-1.464695437E-3,-9.320789250E-4
1.236632080E0,-6.657706108E-4,6.657706108E-4,1.331541280E-4
1.238640674E0,1.464695437E-3,-3.994623839E-4,-9.320789250E-4
1.240649268E0,1.464695437E-3,-3.994623839E-4,-9.320789250E-4
1.242657861E0,1.464695437E-3,6.657706108E-4,-9.320789250E-4
1.244666455E0,3.994623839E-4,-1.464695437E-3,-9.320789250E-4
1.246675049E0,3.994623839E-4,-3.994623839E-4,1.198387123E-3
1.248683643E0,1.464695437E-3,6.657706108E-4,1.331541280E-4
1.250692236E0,1.464695437E-3,-3.994623839E-4,1.331541280E-4
1.252700830E0,3.994623839E-4,6.657706108E-4,1.331541280E-4
1.254709424E0,3.994623839E-4,-1.464695437E-3,1.331541280E-4
1.256718018E0,-6.657706108E-4,-3.994623839E-4,1.331541280E-4
1.258726611E0,1.464695437E-3,1.731003635E-3,-1.997311832E-3
1.260735205E0,3.994623839E-4,1.731003635E-3,-9.320789250E-4
1.262743799E0,1.464695437E-3,1.731003635E-3,1.331541280E-4
1.264752393E0,1.464695437E-3,1.731003635E-3,-9.320789250E-4
1.266760986E0,-6.657706108E-4,-3.994623839E-4,-9.320789250E-4
1.268769580E0,-6.657706108E-4,-3.994623839E-4,1.331541280E-4
1.270778174E0,-6.657706108E-4,-1.464695437E-3,1.331541280E-4
1.272786768E0,-2.796236658E-3,6.657706108E-4,-1.997311832E-3
1.274795361E0,-6.657706108E-4,-2.529928461E-3,1.331541280E-4
1.276803955E0,-6.657706108E-4,-1.464695437E-3,1.331541280E-4
1.278812549E0,-2.796236658E-3,-3.994623839E-4,-9.320789250E-4
1.280821143E0,1.464695437E-3,-1.464695437E-3,1.198387123E-3
1.282829736E0,1.464695437E-3,-1.464695437E-3,1.198387123E-3
1.284838330E0,-1.731003635E-3,-1.464695437E-3,-9.320789250E-4
1.286846924E0,-1.731003635E-3,-1.464695437E-3,1.331541280E-4
1.288855518E0,-1.731003635E-3,-3.994623839E-4,-9.320789250E-4
1.290864111E0,-6.657706108E-4,6.657706108E-4,-9.320789250E-4
1.292872705E0,1.464695437E-3,6.657706108E-4,-9.320789250E-4
1.294881299E0,-6.657706108E-4,6.657706108E-4,-9.320789250E-4
1.296889893E0,3.994623839E-4,6.657706108E-4,-9.320789250E-4
1.298898486E0,3.994623839E-4,-3.994623839E-4,1.331541280E-4
1.300907080E0,-6.657706108E-4,-3.994623839E-4,1.331541280E-4
1.302915674E0,-6.657706108E-4,-2.529928461E-3,1.331541280E-4
1.304924268E0,1.464695437E-3,-3.994623839E-4,-9.320789250E-4
1.306932861E0,1.464695437E-3,-1.464695437E-3,-9.320789250E-4
1.308941455E0,3.994623839E-4,-2.529928461E-3,1.198387123E-3
1.310950049E0,3.994623839E-4,-1.464695437E-3,1.331541280E-4
1.312958643E0,-1.731003635E-3,-2.529928461E-3,-9.320789250E-4
1.314967236E0,-6.657706108E-4,-2.529928461E-3,1.198387123E-3
1.316975830E0,-6.657706108E-4,-2.529928461E-3,-9.320789250E-4
1.318984424E0,-6.657706108E-4,-3.595161485E-3,1.331541280E-4
1.320993018E0,-6.657706108E-4,-3.595161485E-3,1.331541280E-4
1.323001611E0,-1.731003635E-3,-3.595161485E-3,-1.997311832E-3
1.325010205E0,-3.861469682E-3,-3.595161485E-3,1.198387123E-3
1.327018799E0,3.994623839E-4,-3.595161485E-3,1.198387123E-3
1.329027393E0,-6.657706108E-4,-2.529928461E-3,-9.320789250E-4
1.331035986E0,-1.731003635E-3,-2.529928461E-3,1.198387123E-3
1.333044580E0,3.994623839E-4,-3.595161485E-3,1.331541280E-4
1.335049476E0,3.994623839E-4,-2.529928461E-3,1.198387123E-3
1.337054372E0,-1.731003635E-3,-3.595161485E-3,1.198387123E-3
1.339059684E0,-1.731003635E-3,-1.464695437E-3,-9.320789250E-4
1.341065518E0,-6.657706108E-4,-2.529928461E-3,1.331541280E-4
1.343071559E0,-6.657706108E-4,-1.464695437E-3,1.331541280E-4
1.345077601E0,-6.657706108E-4,-3.994623839E-4,1.198387123E-3
1.347084476E0,3.994623839E-4,-3.994623839E-4,-9.320789250E-4
1.349092184E0,-6.657706108E-4,-3.994623839E-4,1.331541280E-4
1.351100726E0,-6.657706108E-4,-3.994623839E-4,1.198387123E-3
1.353110101E0,-6.657706108E-4,-3.994623839E-4,1.331541280E-4
1.355120257E0,-6.657706108E-4,6.657706108E-4,-9.320789250E-4
1.357131091E0,-6.657706108E-4,1.731003635E-3,1.331541280E-4
1.359142497E0,3.994623839E-4,6.657706108E-4,1.331541280E-4
1.361154320E0,3.994623839E-4,2.796236658E-3,-9.320789250E-4
1.363166403E0,3.994623839E-4,6.657706108E-4,-9.320789250E-4
1.365178591E0,3.994623839E-4,-3.994623839E-4,1.331541280E-4
1.367190622E0,-1.731003635E-3,1.731003635E-3,1.331541280E-4
1.369199216E0,3.994623839E-4,2.796236658E-3,1.331541280E-4
1.371207757E0,-6.657706108E-4,1.731003635E-3,1.198387123E-3
1.373216299E0,3.994623839E-4,2.796236658E-3,-9.320789250E-4
1.375224841E0,1.464695437E-3,1.731003635E-3,1.331541280E-4
1.377233382E0,1.464695437E-3,3.861469682E-3,1.331541280E-4
1.379241924E0,3.994623839E-4,2.796236658E-3,1.331541280E-4
1.381250466E0,3.994623839E-4,2.796236658E-3,-9.320789250E-4
1.383259007E0,2.529928461E-3,1.731003635E-3,-1.997311832E-3
1.385267549E0,-2.796236658E-3,2.796236658E-3,1.331541280E-4
1.387276091E0,-6.657706108E-4,6.657706108E-4,1.198387123E-3
1.389284632E0,-6.657706108E-4,6.657706108E-4,1.331541280E-4
1.391293174E0,-6.657706108E-4,6.657706108E-4,-1.997311832E-3
1.393301716E0,-6.657706108E-4,1.731003635E-3,1.331541280E-4
1.395310257E0,3.994623839E-4,6.657706108E-4,1.198387123E-3
1.397318799E0,3.994623839E-4,1.731003635E-3,1.331541280E-4
1.399327341E0,-6.657706108E-4,-3.994623839E-4,1.331541280E-4
1.401335882E0,3.994623839E-4,6.657706108E-4,1.198387123E-3
1.403344424E0,-1.731003635E-3,1.731003635E-3,1.331541280E-4
1.405352966E0,-6.657706108E-4,1.731003635E-3,-9.320789250E-4
1.407361507E0,-6.657706108E-4,1.731003635E-3,1.331541280E-4
1.409370049E0,1.464695437E-3,6.657706108E-4,1.331541280E-4
1.411378591E0,3.994623839E-4,1.731003635E-3,1.331541280E-4
1.413387132E0,3.994623839E-4,6.657706108E-4,1.331541280E-4
1.415395674E0,-6.657706108E-4,2.796236658E-3,1.198387123E-3
1.417404216E0,-1.731003635E-3,4.926702939E-3,1.198387123E-3
1.419412757E0,3.994623839E-4,1.731003635E-3,1.198387123E-3
1.421421299E0,3.994623839E-4,3.861469682E-3,-9.320789250E-4
1.423429841E0,-6.657706108E-4,4.926702939E-3,1.331541280E-4
1.425438382E0,3.994623839E-4,4.926702939E-3,1.331541280E-4
1.427446924E0,3.994623839E-4,2.796236658E-3,1.198387123E-3
1.429455466E0,3.994623839E-4,3.861469682E-3,1.331541280E-4
1.431464007E0,1.464695437E-3,4.926702939E-3,1.198387123E-3
1.433472549E0,2.529928461E-3,3.861469682E-3,-9.320789250E-4
1.435481091E0,-6.657706108E-4,5.991935730E-3,1.198387123E-3
1.437489632E0,3.994623839E-4,4.926702939E-3,1.331541280E-4
1.439498174E0,3.994623839E-4,3.861469682E-3,1.198387123E-3
1.441506716E0,3.994623839E-4,2.796236658E-3,1.198387123E-3
1.443515309E0,-6.657706108E-4,3.861469682E-3,-9.320789250E-4
1.445523903E0,2.529928461E-3,2.796236658E-3,1.331541280E-4
1.447532497E0,1.464695437E-3,2.796236658E-3,1.331541280E-4
1.449541091E0,-6.657706108E-4,2.796236658E-3,1.198387123E-3
1.451549684E0,3.994623839E-4,1.731003635E-3,-9.320789250E-4
1.453558278E0,1.464695437E-3,1.731003635E-3,1.331541280E-4
1.455566872E0,1.464695437E-3,6.657706108E-4,1.331541280E-4
1.457575466E0,-6.657706108E-4,1.731003635E-3,1.198387123E-3
1.459584059E0,3.994623839E-4,1.731003635E-3,1.331541280E-4
1.461592653E0,3.994623839E-4,6.657706108E-4,1.198387123E-3
1.463601247E0,1.464695437E-3,1.731003635E-3,1.198387123E-3
1.465609841E0,-6.657706108E-4,1.731003635E-3,1.198387123E-3
1.467618434E0,1.464695437E-3,1.731003635E-3,1.198387123E-3
1.469627028E0,-6.657706108E-4,-1.464695437E-3,2.263620263E-3
1.471635622E0,-6.657706108E-4,-3.994623839E-4,1.198387123E-3
1.473644216E0,3.994623839E-4,-3.994623839E-4,1.198387123E-3
1.475652809E0,-6.657706108E-4,-3.994623839E-4,1.198387123E-3
1.477661403E0,-1.731003635E-3,-2.529928461E-3,1.198387123E-3
1.479669997E0,-2.796236658E-3,-2.529928461E-3,2.263620263E-3
1.481678591E0,-1.731003635E-3,-2.529928461E-3,1.331541280E-4
1.483687184E0,1.464695437E-3,-2.529928461E-3,1.198387123E-3
1.485695778E0,-6.657706108E-4,-2.529928461E-3,3.328853287E-3
1.487704372E0,-6.657706108E-4,-2.529928461E-3,1.198387123E-3
1.489712966E0,-1.731003635E-3,-2.529928461E-3,1.331541280E-4
1.491721559E0,1.464695437E-3,-3.994623839E-4,1.331541280E-4
1.493730153E0,3.994623839E-4,-2.529928461E-3,1.331541280E-4
1.495738747E0,-1.731003635E-3,-3.994623839E-4,1.198387123E-3
1.497747341E0,-1.731003635E-3,6.657706108E-4,1.198387123E-3
1.499755934E0,-6.657706108E-4,-1.464695437E-3,1.331541280E-4
1.501764528E0,2.529928461E-3,-3.994623839E-4,1.331541280E-4
1.503773122E0,2.529928461E-3,1.731003635E-3,1.331541280E-4
1.505781716E0,1.464695437E-3,6.657706108E-4,1.331541280E-4
1.507790309E0,3.994623839E-4,-3.994623839E-4,-9.320789250E-4
1.509798903E0,-1.731003635E-3,-3.994623839E-4,1.331541280E-4
1.511807497E0,-6.657706108E-4,6.657706108E-4,1.331541280E-4
1.513816091E0,-6.657706108E-4,1.731003635E-3,1.198387123E-3
1.515824684E0,3.994623839E-4,6.657706108E-4,-9.320789250E-4
1.517833278E0,3.994623839E-4,-3.994623839E-4,1.331541280E-4
1.519841872E0,-6.657706108E-4,6.657706108E-4,1.331541280E-4
1.521850466E0,-6.657706108E-4,1.731003635E-3,1.331541280E-4
1.523859059E0,1.464695437E-3,6.657706108E-4,-9.320789250E-4
1.525867653E0,3.994623839E-4,6.657706108E-4,1.331541280E-4
1.527876247E0,1.464695437E-3,2.796236658E-3,-9.320789250E-4
1.529884841E0,3.994623839E-4,3.861469682E-3,-9.320789250E-4
1.531893434E0,3.994623839E-4,3.861469682E-3,-9.320789250E-4
1.533902028E0,1.464695437E-3,2.796236658E-3,-9.320789250E-4
1.535910622E0,3.994623839E-4,4.926702939E-3,1.331541280E-4
1.537919216E0,3.994623839E-4,1.731003635E-3,-1.997311832E-3
1.539927809E0,3.994623839E-4,2.796236658E-3,1.331541280E-4
1.541936403E0,3.994623839E-4,6.657706108E-4,1.331541280E-4
1.543944997E0,3.994623839E-4,6.657706108E-4,-9.320789250E-4
1.545953591E0,3.994623839E-4,6.657706108E-4,-1.997311832E-3
1.547962184E0,3.994623839E-4,6.657706108E-4,-9.320789250E-4
1.549970778E0,-1.731003635E-3,-3.994623839E-4,1.331541280E-4
1.551979372E0,-1.731003635E-3,-1.464695437E-3,1.331541280E-4
1.553987966E0,3.994623839E-4,-1.464695437E-3,-1.997311832E-3
1.555996559E0,3.994623839E-4,-3.994623839E-4,1.198387123E-3
1.558005153E0,3.994623839E-4,-3.994623839E-4,-9.320789250E-4
1.560013747E0,3.994623839E-4,-3.994623839E-4,1.198387123E-3
1.562022341E0,3.994623839E-4,6.657706108E-4,1.331541280E-4
1.564030934E0,-6.657706108E-4,-3.994623839E-4,1.198387123E-3
1.566039528E0,-6.657706108E-4,1.731003635E-3,1.331541280E-4
1.568048122E0,3.994623839E-4,6.657706108E-4,1.198387123E-3
1.570056716E0,-1.731003635E-3,-1.464695437E-3,1.331541280E-4
1.572065309E0,-6.657706108E-4,-3.994623839E-4,1.331541280E-4
1.574073903E0,-6.657706108E-4,-3.994623839E-4,1.198387123E-3
1.576082497E0,-6.657706108E-4,-3.994623839E-4,1.331541280E-4
1.578091091E0,-6.657706108E-4,-3.994623839E-4,1.331541280E-4
1.580099684E0,-1.731003635E-3,-3.994623839E-4,1.331541280E-4
1.582108278E0,-6.657706108E-4,-3.994623839E-4,1.331541280E-4
1.584116872E0,3.994623839E-4,-3.994623839E-4,-9.320789250E-4
1.586125466E0,3.994623839E-4,-1.464695437E-3,1.331541280E-4
1.588134059E0,-1.731003635E-3,-3.994623839E-4,-9.320789250E-4
1.590142653E0,3.994623839E-4,-3.994623839E-4,1.331541280E-4
1.592151247E0,3.994623839E-4,-1.464695437E-3,1.331541280E-4
1.594159841E0,1.464695437E-3,6.657706108E-4,-9.320789250E-4
1.596168434E0,3.994623839E-4,-2.529928461E-3,-9.320789250E-4
1.598177028E0,3.994623839E-4,-1.464695437E-3,1.331541280E-4
1.600185570E0,-6.657706108E-4,-1.464695437E-3,1.198387123E-3
1.602194111E0,3.994623839E-4,-3.994623839E-4,1.331541280E-4
1.604202653E0,3.994623839E-4,-3.994623839E-4,-1.997311832E-3
1.606211195E0,-6.657706108E-4,-3.994623839E-4,-9.320789250E-4
1.608219736E0,-6.657706108E-4,6.657706108E-4,1.331541280E-4
1.610228278E0,-6.657706108E-4,-3.994623839E-4,1.198387123E-3
1.612236820E0,-6.657706108E-4,-3.994623839E-4,-9.320789250E-4
1.614245361E0,-1.731003635E-3,6.657706108E-4,-9.320789250E-4
1.616253903E0,-6.657706108E-4,-1.464695437E-3,1.331541280E-4
1.618262445E0,-6.657706108E-4,-1.464695437E-3,-9.320789250E-4
1.620270986E0,-6.657706108E-4,-3.994623839E-4,1.331541280E-4
1.622279528E0,-6.657706108E-4,6.657706108E-4,1.198387123E-3
1.624288070E0,-6.657706108E-4,-3.994623839E-4,-9.320789250E-4
1.626296611E0,-6.657706108E-4,6.657706108E-4,1.198387123E-3
1.628305153E0,-6.657706108E-4,6.657706108E-4,1.198387123E-3
1.630313695E0,-6.657706108E-4,6.657706108E-4,-9.320789250E-4
1.632322236E0,-6.657706108E-4,6.657706108E-4,1.198387123E-3
1.634330778E0,-1.731003635E-3,6.657706108E-4,1.331541280E-4
1.636339320E0,3.994623839E-4,-1.464695437E-3,1.331541280E-4
1.638347861E0,-6.657706108E-4,-3.994623839E-4,1.331541280E-4
1.640356403E0,-1.731003635E-3,-1.464695437E-3,1.198387123E-3
1.642364945E0,-6.657706108E-4,-1.464695437E-3,1.331541280E-4
1.644373486E0,-1.731003635E-3,-3.994623839E-4,1.331541280E-4
1.646382028E0,-6.657706108E-4,-2.529928461E-3,-1.997311832E-3
1.648390570E0,-6.657706108E-4,-3.994623839E-4,1.198387123E-3
1.650399111E0,3.994623839E-4,-1.464695437E-3,1.331541280E-4
1.652407653E0,3.994623839E-4,-2.529928461E-3,-9.320789250E-4
1.654416195E0,3.994623839E-4,-2.529928461E-3,1.331541280E-4
1.656424736E0,-2.796236658E-3,-2.529928461E-3,1.331541280E-4
1.658433278E0,-1.731003635E-3,-2.529928461E-3,1.331541280E-4
1.660441820E0,-2.796236658E-3,-2.529928461E-3,1.331541280E-4
1.662450361E0,-6.657706108E-4,-3.595161485E-3,1.198387123E-3
1.664458903E0,-6.657706108E-4,-3.595161485E-3,-1.997311832E-3
1.666467445E0,-1.731003635E-3,-6.790860556E-3,1.331541280E-4
1.668475986E0,-1.731003635E-3,-5.725627299E-3,1.331541280E-4
1.670484528E0,-6.657706108E-4,-4.660394508E-3,1.331541280E-4
1.672493122E0,-1.731003635E-3,-4.660394508E-3,-9.320789250E-4
1.674501716E0,3.994623839E-4,-5.725627299E-3,1.331541280E-4
1.676510309E0,-1.731003635E-3,-2.529928461E-3,-9.320789250E-4
1.678518903E0,-6.657706108E-4,-3.595161485E-3,1.331541280E-4
1.680527497E0,-6.657706108E-4,-3.595161485E-3,-9.320789250E-4
1.682536091E0,-1.731003635E-3,-2.529928461E-3,-9.320789250E-4
1.684544684E0,-1.731003635E-3,-3.595161485E-3,1.331541280E-4
1.686553278E0,-6.657706108E-4,-4.660394508E-3,-9.320789250E-4
1.688561872E0,-1.731003635E-3,-2.529928461E-3,1.331541280E-4
1.690570466E0,-1.731003635E-3,-3.595161485E-3,1.331541280E-4
1.692579059E0,-1.731003635E-3,-2.529928461E-3,1.331541280E-4
1.694587653E0,1.464695437E-3,-5.725627299E-3,-9.320789250E-4
1.696596247E0,-1.731003635E-3,-3.595161485E-3,1.331541280E-4
1.698604841E0,-1.731003635E-3,-1.464695437E-3,1.331541280E-4
1.700613434E0,3.994623839E-4,-1.464695437E-3,1.331541280E-4
1.702622028E0,3.994623839E-4,-2.529928461E-3,1.331541280E-4
1.704630622E0,-2.796236658E-3,-2.529928461E-3,1.331541280E-4
1.706639216E0,3.994623839E-4,-1.464695437E-3,1.198387123E-3
1.708647809E0,-1.731003635E-3,-3.994623839E-4,-9.320789250E-4
1.710656403E0,3.994623839E-4,-3.595161485E-3,1.198387123E-3
1.712664997E0,3.994623839E-4,-2.529928461E-3,1.331541280E-4
1.714673591E0,3.994623839E-4,-3.595161485E-3,-9.320789250E-4
1.716682184E0,-1.731003635E-3,-3.595161485E-3,-9.320789250E-4
1.718690778E0,-1.731003635E-3,-3.595161485E-3,-9.320789250E-4
1.720699372E0,-6.657706108E-4,-3.994623839E-4,1.331541280E-4
1.722707966E0,3.994623839E-4,-2.529928461E-3,-9.320789250E-4
1.724716559E0,-6.657706108E-4,-1.464695437E-3,1.331541280E-4
1.726725153E0,-1.731003635E-3,6.657706108E-4,-9.320789250E-4
1.728733747E0,-1.731003635E-3,-1.464695437E-3,1.198387123E-3
1.730742341E0,-1.731003635E-3,-1.464695437E-3,1.331541280E-4
1.732750934E0,1.464695437E-3,6.657706108E-4,1.331541280E-4
1.734759528E0,-6.657706108E-4,3.861469682E-3,1.331541280E-4
1.736768122E0,3.994623839E-4,5.991935730E-3,-9.320789250E-4
1.738776716E0,2.529928461E-3,7.057168987E-3,-9.320789250E-4
1.740785309E0,-6.657706108E-4,1.731003635E-3,1.331541280E-4
1.742793903E0,-6.657706108E-4,-1.464695437E-3,1.331541280E-4
1.744802497E0,-6.657706108E-4,-3.595161485E-3,1.331541280E-4
1.746811091E0,-1.731003635E-3,-5.725627299E-3,1.331541280E-4
1.748819684E0,-1.731003635E-3,-6.790860556E-3,1.331541280E-4
1.750828278E0,-1.731003635E-3,-4.660394508E-3,1.198387123E-3
1.752836872E0,-1.731003635E-3,-4.660394508E-3,2.263620263E-3
1.754845466E0,-6.657706108E-4,-3.595161485E-3,1.331541280E-4
1.756854059E0,-1.731003635E-3,-2.529928461E-3,1.331541280E-4
1.758862653E0,3.994623839E-4,-3.994623839E-4,1.331541280E-4
1.760871247E0,3.994623839E-4,2.796236658E-3,1.331541280E-4
1.762879841E0,1.464695437E-3,3.861469682E-3,1.331541280E-4
1.764888434E0,2.529928461E-3,1.731003635E-3,1.198387123E-3
1.766897028E0,3.994623839E-4,1.731003635E-3,1.331541280E-4
1.768905622E0,3.994623839E-4,1.731003635E-3,1.331541280E-4
1.770914216E0,3.994623839E-4,-1.464695437E-3,-9.320789250E-4
1.772922809E0,-6.657706108E-4,-3.595161485E-3,-9.320789250E-4
1.774931403E0,-6.657706108E-4,-3.595161485E-3,1.198387123E-3
1.776939997E0,-2.796236658E-3,-4.660394508E-3,-9.320789250E-4
1.778948591E0,-1.731003635E-3,-5.725627299E-3,1.331541280E-4
1.780957184E0,3.994623839E-4,-6.790860556E-3,1.331541280E-4
1.782965778E0,-6.657706108E-4,-4.660394508E-3,1.331541280E-4
1.784974372E0,-1.731003635E-3,-3.994623839E-4,1.331541280E-4
1.786982966E0,-6.657706108E-4,6.657706108E-4,1.331541280E-4
1.788991559E0,-6.657706108E-4,6.657706108E-4,-9.320789250E-4
1.791000153E0,3.994623839E-4,6.657706108E-4,1.331541280E-4
1.793008747E0,-6.657706108E-4,2.796236658E-3,1.331541280E-4
1.795017341E0,1.464695437E-3,1.731003635E-3,1.331541280E-4
1.797025934E0,-6.657706108E-4,6.657706108E-4,1.331541280E-4
1.799034528E0,3.994623839E-4,-1.464695437E-3,-1.997311832E-3
1.801043122E0,-6.657706108E-4,-1.464695437E-3,-9.320789250E-4
1.803051716E0,-1.731003635E-3,-1.464695437E-3,1.331541280E-4
1.805060309E0,-6.657706108E-4,-1.464695437E-3,1.331541280E-4
1.807068903E0,3.994623839E-4,-3.994623839E-4,1.331541280E-4
1.809077497E0,-1.731003635E-3,-3.994623839E-4,1.331541280E-4
1.811086091E0,1.464695437E-3,6.657706108E-4,-9.320789250E-4
1.813094684E0,-1.731003635E-3,6.657706108E-4,1.331541280E-4
1.815103278E0,-6.657706108E-4,6.657706108E-4,-9.320789250E-4
1.817111872E0,-6.657706108E-4,6.657706108E-4,1.331541280E-4
1.819120466E0,3.994623839E-4,6.657706108E-4,1.331541280E-4
1.821129059E0,3.994623839E-4,6.657706108E-4,1.331541280E-4
1.823137653E0,3.994623839E-4,1.731003635E-3,-9.320789250E-4
1.825146247E0,-6.657706108E-4,-3.994623839E-4,-9.320789250E-4
1.827154841E0,-6.657706108E-4,6.657706108E-4,1.331541280E-4
1.829163382E0,-1.731003635E-3,-3.994623839E-4,-9.320789250E-4
1.831171924E0,3.994623839E-4,-2.529928461E-3,1.331541280E-4
1.833180466E0,-6.657706108E-4,-2.529928461E-3,1.331541280E-4
1.835189007E0,-1.731003635E-3,-4.660394508E-3,1.198387123E-3
1.837197549E0,-6.657706108E-4,-5.725627299E-3,1.331541280E-4
1.839206091E0,-2.796236658E-3,-6.790860556E-3,-9.320789250E-4
1.841214632E0,-6.657706108E-4,-8.921326138E-3,1.331541280E-4
1.843223174E0,-2.796236658E-3,-6.790860556E-3,1.331541280E-4
1.845231716E0,-2.796236658E-3,-7.856093347E-3,-9.320789250E-4
1.847240257E0,-1.731003635E-3,-5.725627299E-3,1.331541280E-4
1.849248799E0,-1.731003635E-3,-6.790860556E-3,-1.997311832E-3
1.851257341E0,-6.657706108E-4,-5.725627299E-3,1.331541280E-4
1.853265882E0,-1.731003635E-3,-5.725627299E-3,1.331541280E-4
1.855274424E0,-1.731003635E-3,-6.790860556E-3,-9.320789250E-4
1.857282966E0,-1.731003635E-3,-5.725627299E-3,1.331541280E-4
1.859291507E0,-2.796236658E-3,-5.725627299E-3,-9.320789250E-4
1.861300049E0,-2.796236658E-3,-4.660394508E-3,1.331541280E-4
1.863308591E0,-1.731003635E-3,-4.660394508E-3,-9.320789250E-4
1.865317132E0,-2.796236658E-3,-4.660394508E-3,1.331541280E-4
1.867325674E0,-2.796236658E-3,-6.790860556E-3,-9.320789250E-4
1.869334216E0,-6.657706108E-4,-5.725627299E-3,1.331541280E-4
1.871342757E0,-1.731003635E-3,-6.790860556E-3,1.331541280E-4
1.873351299E0,-2.796236658E-3,-7.856093347E-3,-9.320789250E-4
1.875359841E0,-6.657706108E-4,-5.725627299E-3,1.331541280E-4
1.877368382E0,-6.657706108E-4,-5.725627299E-3,1.198387123E-3
1.879376924E0,-6.657706108E-4,-3.595161485E-3,-9.320789250E-4
1.881385466E0,-6.657706108E-4,-4.660394508E-3,-9.320789250E-4
1.883394007E0,-6.657706108E-4,-2.529928461E-3,-9.320789250E-4
1.885402549E0,-1.731003635E-3,-3.595161485E-3,1.331541280E-4
1.887411091E0,-6.657706108E-4,-1.464695437E-3,1.331541280E-4
1.889419632E0,-1.731003635E-3,-1.464695437E-3,-9.320789250E-4
1.891428174E0,3.994623839E-4,-1.464695437E-3,1.331541280E-4
1.893436716E0,3.994623839E-4,-3.994623839E-4,-9.320789250E-4
1.895445257E0,-6.657706108E-4,-3.994623839E-4,1.331541280E-4
1.897453799E0,-6.657706108E-4,-3.994623839E-4,1.331541280E-4
1.899462341E0,-6.657706108E-4,6.657706108E-4,-9.320789250E-4
1.901470934E0,-6.657706108E-4,1.731003635E-3,1.331541280E-4
1.903479528E0,1.464695437E-3,6.657706108E-4,-9.320789250E-4
1.905488122E0,3.994623839E-4,6.657706108E-4,1.331541280E-4
1.907496716E0,3.994623839E-4,6.657706108E-4,-1.997311832E-3
1.909505309E0,-1.731003635E-3,6.657706108E-4,1.198387123E-3
1.911513903E0,-6.657706108E-4,1.731003635E-3,1.331541280E-4
1.913522497E0,-1.731003635E-3,-3.994623839E-4,-9.320789250E-4
1.915531091E0,3.994623839E-4,-3.595161485E-3,-9.320789250E-4
1.917539684E0,-6.657706108E-4,-1.464695437E-3,-9.320789250E-4
1.919548278E0,-6.657706108E-4,-3.994623839E-4,-9.320789250E-4
1.921556872E0,3.994623839E-4,6.657706108E-4,-9.320789250E-4
1.923565466E0,-1.731003635E-3,-1.464695437E-3,1.331541280E-4
1.925574059E0,3.994623839E-4,-3.994623839E-4,1.331541280E-4
1.927582653E0,-1.731003635E-3,-3.994623839E-4,-1.997311832E-3
1.929591247E0,-6.657706108E-4,-2.529928461E-3,1.331541280E-4
1.931599841E0,3.994623839E-4,-2.529928461E-3,1.331541280E-4
1.933608434E0,3.994623839E-4,-3.595161485E-3,-9.320789250E-4
1.935617028E0,-1.731003635E-3,-4.660394508E-3,-1.997311832E-3
1.937625622E0,-1.731003635E-3,-4.660394508E-3,1.331541280E-4
1.939634216E0,-6.657706108E-4,-4.660394508E-3,1.331541280E-4
1.941642809E0,-6.657706108E-4,-3.595161485E-3,1.331541280E-4
1.943651403E0,-1.731003635E-3,-5.725627299E-3,-9.320789250E-4
1.945659997E0,-1.731003635E-3,-3.595161485E-3,-9.320789250E-4
1.947668591E0,3.994623839E-4,-3.595161485E-3,-1.997311832E-3
1.949677184E0,-1.731003635E-3,-3.595161485E-3,-9.320789250E-4
1.951685778E0,-6.657706108E-4,-2.529928461E-3,-9.320789250E-4
1.953694372E0,-2.796236658E-3,-2.529928461E-3,-9.320789250E-4
1.955702966E0,-6.657706108E-4,-3.595161485E-3,1.331541280E-4
1.957711559E0,3.994623839E-4,-1.464695437E-3,1.331541280E-4
1.959720153E0,-6.657706108E-4,-1.464695437E-3,-9.320789250E-4
1.961728747E0,-6.657706108E-4,-3.994623839E-4,1.331541280E-4
1.963737341E0,1.464695437E-3,6.657706108E-4,1.331541280E-4
1.965745934E0,3.994623839E-4,6.657706108E-4,1.331541280E-4
1.967754528E0,-6.657706108E-4,1.731003635E-3,1.331541280E-4
1.969763122E0,-6.657706108E-4,1.731003635E-3,-9.320789250E-4
1.971771716E0,-6.657706108E-4,-3.994623839E-4,1.331541280E-4
1.973780309E0,1.464695437E-3,6.657706108E-4,1.331541280E-4
1.975788903E0,3.994623839E-4,2.796236658E-3,1.331541280E-4
1.977797497E0,-6.657706108E-4,1.731003635E-3,1.331541280E-4
1.979806091E0,-6.657706108E-4,6.657706108E-4,1.331541280E-4
1.981814684E0,-6.657706108E-4,2.796236658E-3,-1.997311832E-3
1.983823278E0,-6.657706108E-4,1.731003635E-3,1.198387123E-3
1.985831872E0,3.994623839E-4,6.657706108E-4,1.331541280E-4
1.987840466E0,1.464695437E-3,2.796236658E-3,1.198387123E-3
1.989849059E0,-6.657706108E-4,1.731003635E-3,1.198387123E-3
1.991857653E0,3.994623839E-4,6.657706108E-4,-9.320789250E-4
1.993866247E0,1.464695437E-3,1.731003635E-3,-1.997311832E-3
1.995874841E0,-6.657706108E-4,1.731003635E-3,1.331541280E-4
1.997883434E0,1.464695437E-3,6.657706108E-4,1.331541280E-4
1.999892028E0,3.994623839E-4,2.796236658E-3,1.198387123E-3
2.001900622E0,3.994623839E-4,2.796236658E-3,-9.320789250E-4
2.003909216E0,3.994623839E-4,1.731003635E-3,1.331541280E-4
2.005917809E0,3.994623839E-4,-1.464695437E-3,1.331541280E-4
2.007926403E0,-6.657706108E-4,-1.464695437E-3,1.198387123E-3
2.009934997E0,-2.796236658E-3,-3.994623839E-4,-9.320789250E-4
2.011943591E0,-6.657706108E-4,-1.464695437E-3,1.331541280E-4
2.013952184E0,-6.657706108E-4,-3.994623839E-4,1.331541280E-4
2.015960778E0,3.994623839E-4,-3.994623839E-4,1.331541280E-4
2.017969372E0,-1.731003635E-3,-2.529928461E-3,-9.320789250E-4
2.019977966E0,-6.657706108E-4,-3.994623839E-4,1.198387123E-3
2.021986559E0,-1.731003635E-3,-3.994623839E-4,-9.320789250E-4
2.023995153E0,3.994623839E-4,-1.464695437E-3,-1.997311832E-3
2.026003747E0,-6.657706108E-4,-3.994623839E-4,-9.320789250E-4
2.028012341E0,-6.657706108E-4,6.657706108E-4,-9.320789250E-4
2.030020934E0,-6.657706108E-4,6.657706108E-4,-9.320789250E-4
2.032029528E0,3.994623839E-4,1.731003635E-3,1.198387123E-3
2.034038122E0,-6.657706108E-4,2.796236658E-3,1.198387123E-3
2.036046716E0,3.994623839E-4,2.796236658E-3,1.331541280E-4
2.038055309E0,3.994623839E-4,6.657706108E-4,-9.320789250E-4
2.040063903E0,-6.657706108E-4,2.796236658E-3,-1.997311832E-3
2.042072497E0,3.994623839E-4,1.731003635E-3,-9.320789250E-4
2.044081091E0,3.994623839E-4,-3.994623839E-4,2.263620263E-3
2.046089684E0,-6.657706108E-4,-3.994623839E-4,1.331541280E-4
2.048098278E0,3.994623839E-4,-3.994623839E-4,-9.320789250E-4
2.050106872E0,3.994623839E-4,1.731003635E-3,-9.320789250E-4
2.052115466E0,-6.657706108E-4,6.657706108E-4,-9.320789250E-4
2.054124059E0,3.994623839E-4,6.657706108E-4,-9.320789250E-4
2.056132653E0,3.994623839E-4,1.731003635E-3,1.331541280E-4
2.058141247E0,1.464695437E-3,6.657706108E-4,-1.997311832E-3
2.060149788E0,-6.657706108E-4,2.796236658E-3,1.331541280E-4
2.062158330E0,3.994623839E-4,2.796236658E-3,-9.320789250E-4
2.064166872E0,-6.657706108E-4,1.731003635E-3,-9.320789250E-4
2.066175413E0,-6.657706108E-4,1.731003635E-3,1.331541280E-4
2.068183955E0,-6.657706108E-4,-3.994623839E-4,1.331541280E-4
2.070192497E0,3.994623839E-4,6.657706108E-4,-9.320789250E-4
2.072201038E0,-6.657706108E-4,1.731003635E-3,1.331541280E-4
2.074209580E0,3.994623839E-4,1.731003635E-3,1.331541280E-4
2.076218122E0,-6.657706108E-4,6.657706108E-4,-9.320789250E-4
2.078226663E0,3.994623839E-4,6.657706108E-4,1.331541280E-4
2.080235205E0,3.994623839E-4,1.731003635E-3,1.331541280E-4
2.082243747E0,-6.657706108E-4,1.731003635E-3,-9.320789250E-4
2.084252288E0,1.464695437E-3,2.796236658E-3,1.331541280E-4
2.086260830E0,2.529928461E-3,2.796236658E-3,1.331541280E-4
2.088269372E0,3.994623839E-4,4.926702939E-3,-9.320789250E-4
2.090277913E0,1.464695437E-3,4.926702939E-3,-9.320789250E-4
2.092286455E0,-1.731003635E-3,3.861469682E-3,1.331541280E-4
2.094294997E0,1.464695437E-3,2.796236658E-3,-9.320789250E-4
2.096303538E0,1.464695437E-3,3.861469682E-3,1.331541280E-4
2.098312080E0,3.994623839E-4,4.926702939E-3,1.198387123E-3
2.100320622E0,3.994623839E-4,3.861469682E-3,1.331541280E-4
2.102329163E0,1.464695437E-3,6.657706108E-4,1.331541280E-4
2.104337705E0,-6.657706108E-4,6.657706108E-4,1.331541280E-4
2.106346247E0,3.994623839E-4,-3.994623839E-4,-1.997311832E-3
2.108354788E0,3.994623839E-4,-3.994623839E-4,1.331541280E-4
2.110363330E0,-6.657706108E-4,-3.994623839E-4,1.331541280E-4
2.112371872E0,-6.657706108E-4,-3.994623839E-4,-1.997311832E-3
2.114380413E0,-1.731003635E-3,-1.464695437E-3,1.331541280E-4
2.116388955E0,-6.657706108E-4,6.657706108E-4,1.331541280E-4
2.118397497E0,-1.731003635E-3,6.657706108E-4,-9.320789250E-4
2.120406038E0,-6.657706108E-4,6.657706108E-4,1.331541280E-4
2.122414580E0,-6.657706108E-4,-3.994623839E-4,1.331541280E-4
2.124423122E0,3.994623839E-4,-3.994623839E-4,1.331541280E-4
2.126431663E0,-6.657706108E-4,6.657706108E-4,1.331541280E-4
2.128440205E0,3.994623839E-4,1.731003635E-3,1.331541280E-4
2.130448747E0,3.994623839E-4,-3.994623839E-4,-9.320789250E-4
2.132457341E0,3.994623839E-4,-3.994623839E-4,-9.320789250E-4
2.134465934E0,-6.657706108E-4,-3.994623839E-4,1.331541280E-4
2.136474528E0,-1.731003635E-3,6.657706108E-4,1.331541280E-4
2.138483122E0,3.994623839E-4,6.657706108E-4,1.198387123E-3
2.140491716E0,1.464695437E-3,6.657706108E-4,-9.320789250E-4
2.142500309E0,1.464695437E-3,-3.994623839E-4,1.331541280E-4
2.144508903E0,3.994623839E-4,6.657706108E-4,-9.320789250E-4
2.146517497E0,3.994623839E-4,1.731003635E-3,1.331541280E-4
2.148526091E0,3.994623839E-4,1.731003635E-3,-9.320789250E-4
2.150534684E0,3.994623839E-4,-1.464695437E-3,1.331541280E-4
2.152543278E0,-6.657706108E-4,-3.994623839E-4,-9.320789250E-4
2.154551872E0,-1.731003635E-3,-3.994623839E-4,-9.320789250E-4
2.156560466E0,-2.796236658E-3,-1.464695437E-3,1.331541280E-4
2.158569059E0,3.994623839E-4,-1.464695437E-3,1.331541280E-4
2.160577653E0,-6.657706108E-4,-3.994623839E-4,-1.997311832E-3
2.162586247E0,3.994623839E-4,-3.994623839E-4,1.331541280E-4
2.164594841E0,-1.731003635E-3,-2.529928461E-3,1.331541280E-4
2.166603434E0,-2.796236658E-3,-2.529928461E-3,-9.320789250E-4
2.168612028E0,-1.731003635E-3,-2.529928461E-3,-9.320789250E-4
2.170620622E0,-6.657706108E-4,-2.529928461E-3,-9.320789250E-4
2.172629216E0,-6.657706108E-4,-4.660394508E-3,-9.320789250E-4
2.174637809E0,-6.657706108E-4,-3.595161485E-3,1.331541280E-4
2.176646403E0,-6.657706108E-4,-2.529928461E-3,-1.997311832E-3
2.178654997E0,3.994623839E-4,-1.464695437E-3,1.198387123E-3
2.180663591E0,3.994623839E-4,-2.529928461E-3,-9.320789250E-4
2.182672184E0,-6.657706108E-4,6.657706108E-4,-1.997311832E-3
2.184680778E0,3.994623839E-4,6.657706108E-4,-9.320789250E-4
2.186689372E0,-6.657706108E-4,6.657706108E-4,1.331541280E-4
2.188697966E0,-1.731003635E-3,-3.994623839E-4,1.331541280E-4
2.190706559E0,3.994623839E-4,-2.529928461E-3,1.331541280E-4
2.192715153E0,3.994623839E-4,-2.529928461E-3,1.331541280E-4
2.194723747E0,-2.796236658E-3,-2.529928461E-3,1.331541280E-4
2.196732341E0,-6.657706108E-4,-1.464695437E-3,-9.320789250E-4
2.198740934E0,-6.657706108E-4,-1.464695437E-3,1.331541280E-4
2.200749528E0,-6.657706108E-4,-2.529928461E-3,-9.320789250E-4
2.202758122E0,-1.731003635E-3,-4.660394508E-3,1.331541280E-4
2.204766716E0,-6.657706108E-4,-2.529928461E-3,-9.320789250E-4
2.206775309E0,3.994623839E-4,-1.464695437E-3,-1.997311832E-3
2.208783903E0,-1.731003635E-3,-3.595161485E-3,-9.320789250E-4
2.210792497E0,3.994623839E-4,-3.994623839E-4,-9.320789250E-4
2.212801091E0,3.994623839E-4,-2.529928461E-3,-9.320789250E-4
2.214809684E0,-1.731003635E-3,-2.529928461E-3,-9.320789250E-4
2.216818278E0,-6.657706108E-4,-2.529928461E-3,-9.320789250E-4
2.218826872E0,-6.657706108E-4,-1.464695437E-3,1.331541280E-4
2.220835466E0,-1.731003635E-3,-2.529928461E-3,1.331541280E-4
2.222844059E0,-6.657706108E-4,-2.529928461E-3,1.198387123E-3
2.224852653E0,-1.731003635E-3,-1.464695437E-3,-9.320789250E-4
2.226861247E0,-6.657706108E-4,-2.529928461E-3,-9.320789250E-4
2.228869841E0,-1.731003635E-3,-1.464695437E-3,-1.997311832E-3
2.230878434E0,-1.731003635E-3,-2.529928461E-3,-1.997311832E-3
2.232887028E0,3.994623839E-4,-3.595161485E-3,-9.320789250E-4
2.234895622E0,3.994623839E-4,-1.464695437E-3,1.331541280E-4
2.236904216E0,1.464695437E-3,-2.529928461E-3,-9.320789250E-4
2.238912809E0,3.994623839E-4,-3.595161485E-3,-9.320789250E-4
2.240921403E0,-6.657706108E-4,-1.464695437E-3,1.331541280E-4
2.242929997E0,-1.731003635E-3,-3.994623839E-4,-9.320789250E-4
2.244938591E0,-1.731003635E-3,-1.464695437E-3,1.198387123E-3
2.246947184E0,-6.657706108E-4,6.657706108E-4,-1.997311832E-3
2.248955778E0,-6.657706108E-4,-3.994623839E-4,-9.320789250E-4
2.250964372E0,3.994623839E-4,-1.464695437E-3,-9.320789250E-4
2.252972966E0,-6.657706108E-4,-3.994623839E-4,1.331541280E-4
2.254981559E0,-1.731003635E-3,-3.994623839E-4,1.331541280E-4
2.256990153E0,-6.657706108E-4,-3.994623839E-4,1.198387123E-3
2.258998747E0,-6.657706108E-4,-1.464695437E-3,1.331541280E-4
2.261007341E0,1.464695437E-3,-3.994623839E-4,1.331541280E-4
2.263015934E0,3.994623839E-4,6.657706108E-4,-9.320789250E-4
2.265024528E0,3.994623839E-4,1.731003635E-3,-9.320789250E-4
2.267033122E0,3.994623839E-4,6.657706108E-4,-1.997311832E-3
2.269041716E0,-6.657706108E-4,2.796236658E-3,-9.320789250E-4
2.271050309E0,1.464695437E-3,1.731003635E-3,1.331541280E-4
2.273058903E0,-6.657706108E-4,4.926702939E-3,-9.320789250E-4
2.275067497E0,-6.657706108E-4,2.796236658E-3,1.331541280E-4
2.277076091E0,3.994623839E-4,2.796236658E-3,1.331541280E-4
2.279084684E0,1.464695437E-3,3.861469682E-3,-9.320789250E-4
2.281093278E0,3.994623839E-4,3.861469682E-3,-9.320789250E-4
2.283101872E0,3.994623839E-4,2.796236658E-3,1.198387123E-3
2.285110466E0,3.994623839E-4,3.861469682E-3,-9.320789250E-4
2.287119007E0,1.464695437E-3,2.796236658E-3,1.331541280E-4
2.289127549E0,3.994623839E-4,2.796236658E-3,1.331541280E-4
2.291136091E0,1.464695437E-3,2.796236658E-3,1.331541280E-4
2.293144632E0,3.994623839E-4,3.861469682E-3,-9.320789250E-4
2.295153174E0,1.464695437E-3,1.731003635E-3,1.331541280E-4
2.297161716E0,2.529928461E-3,2.796236658E-3,-9.320789250E-4
2.299170257E0,1.464695437E-3,3.861469682E-3,-9.320789250E-4
2.301178799E0,3.994623839E-4,1.731003635E-3,-9.320789250E-4
2.303187341E0,1.464695437E-3,1.731003635E-3,-9.320789250E-4
2.305195882E0,3.994623839E-4,1.731003635E-3,1.331541280E-4
2.307204424E0,3.994623839E-4,6.657706108E-4,-1.997311832E-3
2.309212966E0,-6.657706108E-4,6.657706108E-4,-9.320789250E-4
2.311221507E0,-6.657706108E-4,-3.994623839E-4,-9.320789250E-4
2.313230049E0,-6.657706108E-4,-3.595161485E-3,1.331541280E-4
2.315238591E0,-6.657706108E-4,-3.595161485E-3,-9.320789250E-4
2.317247132E0,3.994623839E-4,-4.660394508E-3,1.331541280E-4
2.319255674E0,-6.657706108E-4,-3.595161485E-3,-9.320789250E-4
2.321264216E0,3.994623839E-4,-2.529928461E-3,1.331541280E-4
2.323272757E0,-6.657706108E-4,-2.529928461E-3,1.331541280E-4
2.325281299E0,3.994623839E-4,-1.464695437E-3,-9.320789250E-4
2.327289841E0,-1.731003635E-3,6.657706108E-4,-9.320789250E-4
2.329298382E0,-6.657706108E-4,-1.464695437E-3,-9.320789250E-4
2.331306924E0,3.994623839E-4,-3.994623839E-4,1.198387123E-3
2.333315466E0,3.994623839E-4,-3.994623839E-4,1.198387123E-3
2.335324007E0,-2.796236658E-3,-1.464695437E-3,1.331541280E-4
2.337332549E0,3.994623839E-4,-1.464695437E-3,-9.320789250E-4
2.339341091E0,-1.731003635E-3,-3.994623839E-4,-9.320789250E-4
2.341349632E0,-2.796236658E-3,-3.595161485E-3,1.331541280E-4
2.343358174E0,3.994623839E-4,-1.464695437E-3,1.331541280E-4
2.345366716E0,-6.657706108E-4,-2.529928461E-3,1.331541280E-4
2.347375257E0,-1.731003635E-3,-3.994623839E-4,-9.320789250E-4
2.349383799E0,1.464695437E-3,-1.464695437E-3,-9.320789250E-4
2.351392341E0,-6.657706108E-4,6.657706108E-4,-9.320789250E-4
2.353400882E0,3.994623839E-4,-3.994623839E-4,1.198387123E-3
2.355409424E0,-2.796236658E-3,-3.994623839E-4,1.331541280E-4
2.357417966E0,3.994623839E-4,6.657706108E-4,-9.320789250E-4
2.359426559E0,1.464695437E-3,-2.529928461E-3,-1.997311832E-3
2.361435153E0,3.994623839E-4,-3.595161485E-3,1.331541280E-4
2.363443747E0,-6.657706108E-4,6.657706108E-4,1.331541280E-4
2.365452341E0,3.994623839E-4,-3.994623839E-4,-9.320789250E-4
2.367460934E0,1.464695437E-3,6.657706108E-4,1.198387123E-3
2.369469528E0,1.464695437E-3,6.657706108E-4,1.331541280E-4
2.371478122E0,-6.657706108E-4,6.657706108E-4,1.331541280E-4
2.373486716E0,3.994623839E-4,2.796236658E-3,-9.320789250E-4
2.375495309E0,3.994623839E-4,1.731003635E-3,1.331541280E-4
2.377503903E0,3.994623839E-4,1.731003635E-3,1.331541280E-4
2.379512497E0,-6.657706108E-4,3.861469682E-3,1.331541280E-4
2.381521091E0,3.994623839E-4,3.861469682E-3,1.331541280E-4
2.383529684E0,1.464695437E-3,5.991935730E-3,-9.320789250E-4
2.385538278E0,2.529928461E-3,5.991935730E-3,-9.320789250E-4
2.387546872E0,3.994623839E-4,5.991935730E-3,1.331541280E-4
2.389555466E0,1.464695437E-3,1.731003635E-3,1.331541280E-4
2.391564059E0,3.994623839E-4,-2.529928461E-3,1.331541280E-4
2.393572653E0,3.994623839E-4,-2.529928461E-3,-9.320789250E-4
2.395581247E0,-6.657706108E-4,-3.595161485E-3,1.331541280E-4
2.397589841E0,1.464695437E-3,-2.529928461E-3,-9.320789250E-4
2.399598434E0,-6.657706108E-4,-1.464695437E-3,1.198387123E-3
2.401607028E0,3.994623839E-4,1.731003635E-3,-9.320789250E-4
2.403615622E0,-6.657706108E-4,2.796236658E-3,1.331541280E-4
2.405624216E0,-6.657706108E-4,3.861469682E-3,1.331541280E-4
2.407632809E0,3.595161485E-3,4.926702939E-3,1.198387123E-3
2.409641403E0,1.464695437E-3,3.861469682E-3,1.331541280E-4
2.411649997E0,1.464695437E-3,4.926702939E-3,-1.997311832E-3
2.413658591E0,1.464695437E-3,5.991935730E-3,1.198387123E-3
2.415667184E0,3.994623839E-4,4.926702939E-3,-1.997311832E-3
2.417675778E0,2.529928461E-3,4.926702939E-3,-9.320789250E-4
2.419684372E0,1.464695437E-3,3.861469682E-3,1.331541280E-4
2.421692966E0,1.464695437E-3,3.861469682E-3,1.331541280E-4
2.423701559E0,-6.657706108E-4,6.657706108E-4,1.331541280E-4
2.425710153E0,3.994623839E-4,2.796236658E-3,-9.320789250E-4
2.427718747E0,-6.657706108E-4,1.731003635E-3,1.198387123E-3
2.429727341E0,3.994623839E-4,2.796236658E-3,1.331541280E-4
2.431735934E0,-1.731003635E-3,2.796236658E-3,-1.997311832E-3
2.433744528E0,3.994623839E-4,2.796236658E-3,-9.320789250E-4
2.435753122E0,2.529928461E-3,4.926702939E-3,-9.320789250E-4
2.437761716E0,1.464695437E-3,3.861469682E-3,1.198387123E-3
2.439770309E0,-6.657706108E-4,5.991935730E-3,1.331541280E-4
2.441778903E0,-6.657706108E-4,2.796236658E-3,1.331541280E-4
2.443787497E0,3.994623839E-4,3.861469682E-3,-9.320789250E-4
2.445796091E0,1.464695437E-3,3.861469682E-3,1.331541280E-4
2.447804684E0,2.529928461E-3,3.861469682E-3,-9.320789250E-4
2.449813278E0,3.994623839E-4,5.991935730E-3,-9.320789250E-4
2.451821872E0,3.994623839E-4,4.926702939E-3,-9.320789250E-4
2.453830466E0,2.529928461E-3,3.861469682E-3,1.331541280E-4
2.455839059E0,3.994623839E-4,3.861469682E-3,1.331541280E-4
2.457847653E0,1.464695437E-3,3.861469682E-3,1.331541280E-4
2.459856247E0,-6.657706108E-4,3.861469682E-3,1.331541280E-4
2.461864841E0,2.529928461E-3,4.926702939E-3,1.198387123E-3
2.463873434E0,3.994623839E-4,2.796236658E-3,1.331541280E-4
2.465882028E0,1.464695437E-3,2.796236658E-3,-9.320789250E-4
2.467890622E0,1.464695437E-3,1.731003635E-3,-9.320789250E-4
2.469899216E0,2.529928461E-3,-3.994623839E-4,-9.320789250E-4
2.471907809E0,3.994623839E-4,1.731003635E-3,1.331541280E-4
2.473916403E0,3.994623839E-4,1.731003635E-3,1.331541280E-4
2.475924997E0,-1.731003635E-3,6.657706108E-4,1.331541280E-4
2.477933591E0,3.994623839E-4,6.657706108E-4,-9.320789250E-4
2.479942184E0,3.994623839E-4,6.657706108E-4,-9.320789250E-4
2.481950778E0,-6.657706108E-4,-3.994623839E-4,1.198387123E-3
2.483959372E0,3.994623839E-4,6.657706108E-4,1.198387123E-3
2.485967966E0,3.994623839E-4,-1.464695437E-3,1.331541280E-4
2.487976559E0,3.994623839E-4,-3.994623839E-4,1.331541280E-4
2.489985153E0,-1.731003635E-3,6.657706108E-4,-9.320789250E-4
2.491993747E0,3.994623839E-4,-1.464695437E-3,1.331541280E-4
2.494002341E0,3.994623839E-4,-3.994623839E-4,1.331541280E-4
2.496010934E0,-1.731003635E-3,6.657706108E-4,-1.997311832E-3
2.498019528E0,-6.657706108E-4,6.657706108E-4,-9.320789250E-4
2.500028122E0,1.464695437E-3,-3.994623839E-4,-9.320789250E-4
2.502036716E0,-6.657706108E-4,1.731003635E-3,-9.320789250E-4
2.504045309E0,-1.731003635E-3,6.657706108E-4,-9.320789250E-4
2.506053903E0,3.994623839E-4,-3.994623839E-4,1.331541280E-4
2.508062497E0,3.994623839E-4,6.657706108E-4,-9.320789250E-4
2.510071091E0,1.464695437E-3,2.796236658E-3,1.331541280E-4
2.512079684E0,3.994623839E-4,2.796236658E-3,1.198387123E-3
2.514088278E0,-6.657706108E-4,2.796236658E-3,-9.320789250E-4
2.516096820E0,1.464695437E-3,1.731003635E-3,1.331541280E-4
2.518105361E0,1.464695437E-3,1.731003635E-3,1.331541280E-4
2.520113903E0,3.994623839E-4,1.731003635E-3,-1.997311832E-3
2.522122445E0,-6.657706108E-4,1.731003635E-3,-1.997311832E-3
2.524130986E0,1.464695437E-3,2.796236658E-3,-9.320789250E-4
2.526139528E0,3.994623839E-4,2.796236658E-3,1.331541280E-4
2.528148070E0,-6.657706108E-4,6.657706108E-4,1.331541280E-4
2.530156611E0,-6.657706108E-4,-3.994623839E-4,-1.997311832E-3
2.532165153E0,-6.657706108E-4,2.796236658E-3,-9.320789250E-4
2.534173695E0,2.529928461E-3,-3.994623839E-4,1.331541280E-4
2.536182236E0,-6.657706108E-4,1.731003635E-3,-9.320789250E-4
2.538190778E0,-6.657706108E-4,-3.994623839E-4,-9.320789250E-4
2.540199320E0,3.994623839E-4,-3.994623839E-4,1.331541280E-4
2.542207861E0,3.994623839E-4,-3.994623839E-4,1.331541280E-4
2.544216403E0,3.994623839E-4,-3.994623839E-4,1.198387123E-3
2.546224945E0,-1.731003635E-3,-1.464695437E-3,1.198387123E-3
2.548233486E0,3.994623839E-4,-1.464695437E-3,1.331541280E-4
2.550242028E0,1.464695437E-3,-2.529928461E-3,1.331541280E-4
2.552250570E0,-1.731003635E-3,-2.529928461E-3,-9.320789250E-4
2.554259111E0,-6.657706108E-4,-2.529928461E-3,1.198387123E-3
2.556267653E0,-1.731003635E-3,-3.994623839E-4,1.198387123E-3
2.558276195E0,-6.657706108E-4,-2.529928461E-3,1.331541280E-4
2.560284736E0,-6.657706108E-4,-2.529928461E-3,1.198387123E-3
2.562293278E0,-6.657706108E-4,-1.464695437E-3,1.331541280E-4
2.564301820E0,3.994623839E-4,-3.994623839E-4,-9.320789250E-4
2.566310361E0,-6.657706108E-4,-1.464695437E-3,-9.320789250E-4
2.568318903E0,1.464695437E-3,-2.529928461E-3,1.331541280E-4
2.570327445E0,-6.657706108E-4,-3.994623839E-4,1.198387123E-3
2.572335986E0,-1.731003635E-3,-1.464695437E-3,-9.320789250E-4
2.574344528E0,-6.657706108E-4,6.657706108E-4,1.331541280E-4
2.576353070E0,3.994623839E-4,6.657706108E-4,-1.997311832E-3
2.578361611E0,-1.731003635E-3,-3.994623839E-4,1.331541280E-4
2.580370153E0,3.994623839E-4,-3.994623839E-4,-9.320789250E-4
2.582378695E0,3.994623839E-4,6.657706108E-4,1.331541280E-4
2.584387236E0,3.994623839E-4,-3.994623839E-4,-9.320789250E-4
2.586395778E0,-6.657706108E-4,-3.994623839E-4,1.331541280E-4
2.588404372E0,-6.657706108E-4,6.657706108E-4,1.198387123E-3
2.590412966E0,3.994623839E-4,1.731003635E-3,-9.320789250E-4
2.592421559E0,1.464695437E-3,1.731003635E-3,1.331541280E-4
2.594430153E0,3.994623839E-4,2.796236658E-3,1.331541280E-4
2.596438747E0,-1.731003635E-3,1.731003635E-3,-1.997311832E-3
2.598447341E0,3.994623839E-4,2.796236658E-3,1.331541280E-4
2.600455934E0,1.464695437E-3,1.731003635E-3,1.198387123E-3
2.602464528E0,3.994623839E-4,6.657706108E-4,1.331541280E-4
2.604473122E0,2.529928461E-3,6.657706108E-4,1.198387123E-3
2.606481716E0,3.994623839E-4,2.796236658E-3,1.331541280E-4
2.608490309E0,3.994623839E-4,6.657706108E-4,-9.320789250E-4
2.610498903E0,-1.731003635E-3,6.657706108E-4,-9.320789250E-4
2.612507497E0,1.464695437E-3,6.657706108E-4,1.198387123E-3
2.614516091E0,-6.657706108E-4,6.657706108E-4,-9.320789250E-4
2.616524684E0,3.994623839E-4,-1.464695437E-3,1.198387123E-3
2.618533278E0,3.994623839E-4,-3.994623839E-4,1.331541280E-4
2.620541872E0,3.994623839E-4,-1.464695437E-3,1.331541280E-4
2.622550466E0,-6.657706108E-4,-3.994623839E-4,1.331541280E-4
2.624559059E0,3.994623839E-4,-1.464695437E-3,-9.320789250E-4
2.626567653E0,-6.657706108E-4,-3.595161485E-3,1.331541280E-4
2.628576247E0,1.464695437E-3,-1.464695437E-3,-9.320789250E-4
2.630584841E0,-1.731003635E-3,-3.595161485E-3,1.331541280E-4
2.632593434E0,-1.731003635E-3,-3.595161485E-3,-9.320789250E-4
2.634602028E0,-1.731003635E-3,-3.595161485E-3,1.331541280E-4
2.636610622E0,-1.731003635E-3,-3.595161485E-3,-9.320789250E-4
2.638619216E0,3.994623839E-4,-3.595161485E-3,1.331541280E-4
2.640627809E0,-1.731003635E-3,-3.595161485E-3,-1.997311832E-3
2.642636403E0,-6.657706108E-4,-1.464695437E-3,-9.320789250E-4
2.644644997E0,-1.731003635E-3,-3.595161485E-3,1.331541280E-4
2.646653591E0,-6.657706108E-4,-3.595161485E-3,-1.997311832E-3
2.648662184E0,1.464695437E-3,-1.464695437E-3,1.331541280E-4
2.650670778E0,-1.731003635E-3,-3.994623839E-4,1.198387123E-3
2.652679372E0,1.464695437E-3,-1.464695437E-3,-9.320789250E-4
2.654687966E0,-6.657706108E-4,-1.464695437E-3,-9.320789250E-4
2.656696559E0,3.994623839E-4,-3.994623839E-4,-9.320789250E-4
2.658705153E0,-6.657706108E-4,6.657706108E-4,1.198387123E-3
2.660713747E0,-6.657706108E-4,-3.994623839E-4,1.331541280E-4
2.662722341E0,-6.657706108E-4,-3.994623839E-4,-9.320789250E-4
2.664730934E0,3.994623839E-4,-3.994623839E-4,1.331541280E-4
2.666739528E0,3.994623839E-4,-2.529928461E-3,-9.320789250E-4
2.668748122E0,-6.657706108E-4,1.731003635E-3,1.331541280E-4
2.670756716E0,-1.731003635E-3,-1.464695437E-3,1.331541280E-4
2.672765309E0,-6.657706108E-4,-2.529928461E-3,1.331541280E-4
2.674773903E0,-6.657706108E-4,6.657706108E-4,-1.997311832E-3
2.676782497E0,-1.731003635E-3,6.657706108E-4,-9.320789250E-4
2.678791091E0,1.464695437E-3,-3.994623839E-4,1.331541280E-4
2.680799684E0,-6.657706108E-4,-3.994623839E-4,-9.320789250E-4
2.682808278E0,3.994623839E-4,6.657706108E-4,-9.320789250E-4
2.684816872E0,3.994623839E-4,6.657706108E-4,-9.320789250E-4
2.686825466E0,-6.657706108E-4,1.731003635E-3,-9.320789250E-4
2.688834059E0,-6.657706108E-4,6.657706108E-4,1.331541280E-4
2.690842653E0,1.464695437E-3,1.731003635E-3,1.331541280E-4
2.692851247E0,3.994623839E-4,6.657706108E-4,1.331541280E-4
2.694859841E0,3.994623839E-4,-3.994623839E-4,-9.320789250E-4
2.696868434E0,-6.657706108E-4,6.657706108E-4,-9.320789250E-4
2.698877028E0,-6.657706108E-4,6.657706108E-4,1.331541280E-4
2.700885622E0,-6.657706108E-4,6.657706108E-4,1.331541280E-4
2.702894216E0,-6.657706108E-4,1.731003635E-3,-9.320789250E-4
2.704902809E0,1.464695437E-3,1.731003635E-3,-1.997311832E-3
2.706911403E0,3.994623839E-4,1.731003635E-3,1.198387123E-3
2.708919997E0,-6.657706108E-4,6.657706108E-4,1.331541280E-4
2.710928591E0,-6.657706108E-4,6.657706108E-4,-9.320789250E-4
2.712937184E0,3.994623839E-4,6.657706108E-4,-9.320789250E-4
2.714945778E0,3.994623839E-4,-1.464695437E-3,1.331541280E-4
2.716954372E0,-6.657706108E-4,-3.994623839E-4,-9.320789250E-4
2.718962966E0,-1.731003635E-3,-3.595161485E-3,1.331541280E-4
2.720971559E0,-1.731003635E-3,-3.595161485E-3,-9.320789250E-4
2.722980153E0,-1.731003635E-3,-4.660394508E-3,1.331541280E-4
2.724988747E0,-6.657706108E-4,-6.790860556E-3,-9.320789250E-4
2.726997341E0,-2.796236658E-3,-6.790860556E-3,-9.320789250E-4
2.729005934E0,-2.796236658E-3,-6.790860556E-3,-9.320789250E-4
2.731014528E0,-2.796236658E-3,-7.856093347E-3,1.331541280E-4
2.733023122E0,-6.657706108E-4,-6.790860556E-3,-1.997311832E-3
2.735031716E0,-2.796236658E-3,-5.725627299E-3,1.331541280E-4
2.737040309E0,-1.731003635E-3,-5.725627299E-3,-9.320789250E-4
2.739048903E0,-2.796236658E-3,-6.790860556E-3,1.331541280E-4
2.741057497E0,-2.796236658E-3,-6.790860556E-3,-9.320789250E-4
2.743066038E0,-1.731003635E-3,-6.790860556E-3,-9.320789250E-4
2.745074580E0,-2.796236658E-3,-7.856093347E-3,1.331541280E-4
2.747083122E0,-2.796236658E-3,-7.856093347E-3,-9.320789250E-4
2.749091663E0,-1.731003635E-3,-6.790860556E-3,1.331541280E-4
2.751100205E0,-1.731003635E-3,-5.725627299E-3,-9.320789250E-4
2.753108747E0,-6.657706108E-4,-3.595161485E-3,-9.320789250E-4
2.755117288E0,-6.657706108E-4,-1.464695437E-3,1.331541280E-4
2.757125830E0,-6.657706108E-4,1.731003635E-3,-9.320789250E-4
2.759134372E0,-6.657706108E-4,3.861469682E-3,1.331541280E-4
2.761142913E0,3.994623839E-4,8.122402243E-3,-9.320789250E-4
2.763151455E0,2.529928461E-3,1.238333434E-2,-1.997311832E-3
2.765159997E0,3.595161485E-3,1.451379992E-2,-9.320789250E-4
2.767168538E0,3.595161485E-3,1.983996481E-2,1.331541280E-4
2.769177080E0,3.595161485E-3,1.983996481E-2,1.198387123E-3
2.771185622E0,4.660394508E-3,1.770949923E-2,-9.320789250E-4
2.773194163E0,5.725627299E-3,1.451379992E-2,-9.320789250E-4
2.775202705E0,2.529928461E-3,1.238333434E-2,-1.997311832E-3
2.777211247E0,2.529928461E-3,5.991935730E-3,1.331541280E-4
2.779219788E0,3.994623839E-4,2.796236658E-3,1.198387123E-3
2.781228330E0,-6.657706108E-4,6.657706108E-4,1.331541280E-4
2.783236872E0,-6.657706108E-4,-2.529928461E-3,-9.320789250E-4
2.785245413E0,-1.731003635E-3,-2.529928461E-3,-9.320789250E-4
2.787253955E0,-1.731003635E-3,-4.660394508E-3,1.331541280E-4
2.789262497E0,-1.731003635E-3,-2.529928461E-3,1.331541280E-4
2.791271038E0,-6.657706108E-4,-1.464695437E-3,-9.320789250E-4
2.793279580E0,1.464695437E-3,-2.529928461E-3,-9.320789250E-4
2.795288122E0,-1.731003635E-3,-3.994623839E-4,1.331541280E-4
2.797296663E0,1.464695437E-3,-1.464695437E-3,-9.320789250E-4
2.799305205E0,3.994623839E-4,-2.529928461E-3,1.331541280E-4
2.801313747E0,-6.657706108E-4,-3.994623839E-4,1.331541280E-4
2.803322288E0,-6.657706108E-4,-1.464695437E-3,-9.320789250E-4
2.805330830E0,-6.657706108E-4,6.657706108E-4,-9.320789250E-4
2.807339372E0,3.994623839E-4,6.657706108E-4,-9.320789250E-4
2.809347913E0,1.464695437E-3,6.657706108E-4,-9.320789250E-4
2.811356455E0,3.994623839E-4,1.731003635E-3,1.331541280E-4
2.813364997E0,3.994623839E-4,-3.994623839E-4,-9.320789250E-4
2.815373591E0,3.994623839E-4,1.731003635E-3,1.331541280E-4
2.817382184E0,3.994623839E-4,1.731003635E-3,-9.320789250E-4
2.819390778E0,3.994623839E-4,1.731003635E-3,-9.320789250E-4
2.821399372E0,-6.657706108E-4,6.657706108E-4,1.331541280E-4
2.823407966E0,-6.657706108E-4,6.657706108E-4,1.331541280E-4
2.825416559E0,-6.657706108E-4,6.657706108E-4,1.198387123E-3
2.827425153E0,-2.796236658E-3,-3.994623839E-4,-9.320789250E-4
2.829433747E0,-6.657706108E-4,2.796236658E-3,-1.997311832E-3
2.831442341E0,-6.657706108E-4,6.657706108E-4,1.331541280E-4
2.833450934E0,3.994623839E-4,-3.994623839E-4,1.331541280E-4
2.835459528E0,-6.657706108E-4,6.657706108E-4,-9.320789250E-4
2.837468122E0,-6.657706108E-4,-1.464695437E-3,1.331541280E-4
2.839476716E0,1.464695437E-3,6.657706108E-4,1.331541280E-4
2.841485309E0,-6.657706108E-4,1.731003635E-3,1.331541280E-4
2.843493903E0,3.994623839E-4,1.731003635E-3,-9.320789250E-4
2.845502497E0,1.464695437E-3,1.731003635E-3,1.331541280E-4
2.847511091E0,1.464695437E-3,3.861469682E-3,1.331541280E-4
2.849519684E0,1.464695437E-3,4.926702939E-3,1.331541280E-4
2.851528278E0,3.994623839E-4,5.991935730E-3,1.331541280E-4
2.853536872E0,1.464695437E-3,7.057168987E-3,-9.320789250E-4
2.855545466E0,1.464695437E-3,8.122402243E-3,-9.320789250E-4
2.857554059E0,1.464695437E-3,8.122402243E-3,-9.320789250E-4
2.859562653E0,2.529928461E-3,9.187635034E-3,-9.320789250E-4
2.861571247E0,3.595161485E-3,1.025286783E-2,-9.320789250E-4
2.863579841E0,3.595161485E-3,8.122402243E-3,-9.320789250E-4
2.865588434E0,2.529928461E-3,1.025286783E-2,1.331541280E-4
2.867597028E0,1.464695437E-3,9.187635034E-3,-9.320789250E-4
2.869605622E0,3.595161485E-3,1.025286783E-2,1.331541280E-4
2.871614216E0,3.595161485E-3,1.025286783E-2,-9.320789250E-4
2.873622809E0,2.529928461E-3,1.025286783E-2,1.331541280E-4
2.875631403E0,3.595161485E-3,1.025286783E-2,-9.320789250E-4
2.877639997E0,2.529928461E-3,9.187635034E-3,1.331541280E-4
2.879648591E0,2.529928461E-3,9.187635034E-3,-9.320789250E-4
2.881657184E0,2.529928461E-3,8.122402243E-3,-9.320789250E-4
2.883665778E0,3.595161485E-3,1.025286783E-2,-9.320789250E-4
2.885674372E0,1.464695437E-3,9.187635034E-3,-9.320789250E-4
2.887682966E0,2.529928461E-3,8.122402243E-3,1.198387123E-3
2.889691559E0,1.464695437E-3,7.057168987E-3,1.331541280E-4
2.891700153E0,1.464695437E-3,5.991935730E-3,1.331541280E-4
2.893708747E0,1.464695437E-3,5.991935730E-3,-1.997311832E-3
2.895717341E0,3.994623839E-4,4.926702939E-3,1.331541280E-4
2.897725934E0,1.464695437E-3,2.796236658E-3,-1.997311832E-3
2.899734528E0,-1.731003635E-3,2.796236658E-3,-9.320789250E-4
2.901743122E0,3.994623839E-4,1.731003635E-3,1.331541280E-4
2.903751716E0,-6.657706108E-4,-1.464695437E-3,1.331541280E-4
2.905760309E0,-6.657706108E-4,-2.529928461E-3,1.331541280E-4
2.907768903E0,-1.731003635E-3,-1.464695437E-3,-9.320789250E-4
2.909777497E0,3.994623839E-4,-3.994623839E-4,-9.320789250E-4
2.911786091E0,3.994623839E-4,-1.464695437E-3,1.331541280E-4
2.913794684E0,-1.731003635E-3,-1.464695437E-3,-1.997311832E-3
2.915803278E0,-6.657706108E-4,-3.994623839E-4,-9.320789250E-4
2.917811872E0,-1.731003635E-3,-1.464695437E-3,-1.997311832E-3
2.919820466E0,-6.657706108E-4,-4.660394508E-3,-1.997311832E-3
2.921829059E0,-1.731003635E-3,-4.660394508E-3,-9.320789250E-4
2.923837653E0,-1.731003635E-3,-4.660394508E-3,-9.320789250E-4
2.925846247E0,-6.657706108E-4,-2.529928461E-3,1.331541280E-4
2.927854841E0,-6.657706108E-4,-5.725627299E-3,-9.320789250E-4
2.929863434E0,-1.731003635E-3,-4.660394508E-3,-9.320789250E-4
2.931872028E0,-6.657706108E-4,-3.595161485E-3,1.331541280E-4
2.933880622E0,3.994623839E-4,-1.464695437E-3,-9.320789250E-4
2.935889216E0,3.994623839E-4,3.861469682E-3,1.331541280E-4
2.937897809E0,3.595161485E-3,1.131810062E-2,-9.320789250E-4
2.939906403E0,4.660394508E-3,1.983996481E-2,-9.320789250E-4
2.941914997E0,6.790860556E-3,2.410089783E-2,1.198387123E-3
2.943923591E0,6.790860556E-3,2.516612969E-2,-9.320789250E-4
2.945932184E0,7.856093347E-3,2.623136342E-2,1.331541280E-4
2.947940778E0,6.790860556E-3,2.303566411E-2,1.331541280E-4
2.949949372E0,4.660394508E-3,2.090519853E-2,-9.320789250E-4
2.951957966E0,5.725627299E-3,1.451379992E-2,-1.997311832E-3
2.953966559E0,4.660394508E-3,1.131810062E-2,1.331541280E-4
2.955975153E0,3.595161485E-3,5.991935730E-3,1.331541280E-4
2.957983747E0,3.994623839E-4,2.796236658E-3,-9.320789250E-4
2.959992341E0,-6.657706108E-4,-3.994623839E-4,-9.320789250E-4
2.962000934E0,3.994623839E-4,-1.464695437E-3,1.331541280E-4
2.964009528E0,-6.657706108E-4,-3.595161485E-3,-9.320789250E-4
2.966018122E0,-2.796236658E-3,-3.595161485E-3,-9.320789250E-4
2.968026663E0,-6.657706108E-4,-3.595161485E-3,1.331541280E-4
2.970035205E0,-6.657706108E-4,-1.464695437E-3,1.331541280E-4
2.972043747E0,-6.657706108E-4,-3.994623839E-4,-9.320789250E-4
2.974052288E0,-6.657706108E-4,2.796236658E-3,1.198387123E-3
2.976060830E0,-1.731003635E-3,2.796236658E-3,-9.320789250E-4
2.978069372E0,3.994623839E-4,2.796236658E-3,-9.320789250E-4
2.980077913E0,3.994623839E-4,3.861469682E-3,1.331541280E-4
2.982086455E0,1.464695437E-3,2.796236658E-3,1.198387123E-3
2.984094997E0,-6.657706108E-4,3.861469682E-3,1.331541280E-4
2.986103538E0,1.464695437E-3,4.926702939E-3,1.198387123E-3
2.988112080E0,1.464695437E-3,2.796236658E-3,-9.320789250E-4
2.990120622E0,3.994623839E-4,2.796236658E-3,1.331541280E-4
2.992129163E0,-6.657706108E-4,1.731003635E-3,1.331541280E-4
2.994137705E0,2.529928461E-3,2.796236658E-3,1.198387123E-3
2.996146247E0,-1.731003635E-3,-3.994623839E-4,1.331541280E-4
2.998154788E0,3.994623839E-4,-3.994623839E-4,-9.320789250E-4
3.000163330E0,1.464695437E-3,6.657706108E-4,1.331541280E-4
3.002171872E0,-6.657706108E-4,6.657706108E-4,1.331541280E-4
3.004180413E0,3.994623839E-4,1.731003635E-3,1.331541280E-4
3.006188955E0,-6.657706108E-4,1.731003635E-3,1.331541280E-4
3.008197497E0,3.994623839E-4,6.657706108E-4,-9.320789250E-4
3.010206038E0,3.994623839E-4,1.731003635E-3,-9.320789250E-4
3.012214580E0,-1.731003635E-3,2.796236658E-3,1.331541280E-4
3.014223122E0,-6.657706108E-4,1.731003635E-3,-9.320789250E-4
3.016231663E0,-6.657706108E-4,1.731003635E-3,1.331541280E-4
3.018240205E0,3.994623839E-4,6.657706108E-4,1.331541280E-4
3.020248747E0,3.994623839E-4,1.731003635E-3,-9.320789250E-4
3.022257288E0,3.994623839E-4,6.657706108E-4,-1.997311832E-3
3.024265830E0,3.994623839E-4,6.657706108E-4,1.198387123E-3
3.026274372E0,1.464695437E-3,-3.994623839E-4,1.198387123E-3
3.028282913E0,-6.657706108E-4,-3.994623839E-4,-9.320789250E-4
3.030291455E0,-1.731003635E-3,-1.464695437E-3,-9.320789250E-4
3.032299997E0,-6.657706108E-4,-1.464695437E-3,-9.320789250E-4
3.034308538E0,-6.657706108E-4,-3.994623839E-4,1.331541280E-4
3.036317080E0,3.994623839E-4,-3.994623839E-4,-9.320789250E-4
3.038325622E0,-1.731003635E-3,-1.464695437E-3,1.331541280E-4
3.040334216E0,-6.657706108E-4,-3.994623839E-4,-9.320789250E-4
3.042342809E0,-6.657706108E-4,-2.529928461E-3,1.331541280E-4
3.044351403E0,3.994623839E-4,-3.595161485E-3,1.331541280E-4
3.046359997E0,-1.731003635E-3,-2.529928461E-3,-9.320789250E-4
3.048368591E0,-1.731003635E-3,-2.529928461E-3,-9.320789250E-4
3.050377184E0,-6.657706108E-4,-1.464695437E-3,1.331541280E-4
3.052385778E0,-6.657706108E-4,-2.529928461E-3,1.331541280E-4
3.054394372E0,-6.657706108E-4,-1.464695437E-3,-9.320789250E-4
3.056402966E0,-6.657706108E-4,-1.464695437E-3,1.331541280E-4
3.058411559E0,-6.657706108E-4,6.657706108E-4,1.331541280E-4
3.060420153E0,3.994623839E-4,1.731003635E-3,-9.320789250E-4
3.062428747E0,1.464695437E-3,3.861469682E-3,-1.997311832E-3
3.064437341E0,3.994623839E-4,1.731003635E-3,1.331541280E-4
3.066445934E0,3.994623839E-4,2.796236658E-3,1.331541280E-4
3.068454528E0,1.464695437E-3,2.796236658E-3,1.331541280E-4
3.070463122E0,3.994623839E-4,3.861469682E-3,1.198387123E-3
3.072471716E0,1.464695437E-3,3.861469682E-3,-9.320789250E-4
3.074480309E0,3.994623839E-4,2.796236658E-3,1.331541280E-4
3.076488903E0,3.994623839E-4,1.731003635E-3,1.331541280E-4
3.078497497E0,-6.657706108E-4,6.657706108E-4,-1.997311832E-3
3.080506091E0,3.994623839E-4,1.731003635E-3,1.331541280E-4
3.082514684E0,-6.657706108E-4,6.657706108E-4,1.331541280E-4
3.084523278E0,3.994623839E-4,1.731003635E-3,-1.997311832E-3
3.086531872E0,-6.657706108E-4,6.657706108E-4,1.198387123E-3
3.088540466E0,3.994623839E-4,1.731003635E-3,1.198387123E-3
3.090549059E0,-6.657706108E-4,6.657706108E-4,1.331541280E-4
3.092557653E0,-6.657706108E-4,6.657706108E-4,-9.320789250E-4
3.094566247E0,-6.657706108E-4,2.796236658E-3,-9.320789250E-4
3.096574841E0,3.994623839E-4,6.657706108E-4,1.198387123E-3
3.098583434E0,3.994623839E-4,1.731003635E-3,1.198387123E-3
3.100592028E0,3.994623839E-4,1.731003635E-3,-1.997311832E-3
3.102600622E0,-6.657706108E-4,3.861469682E-3,1.331541280E-4
3.104609216E0,3.994623839E-4,3.861469682E-3,1.331541280E-4
3.106617809E0,-6.657706108E-4,2.796236658E-3,-9.320789250E-4
3.108626403E0,1.464695437E-3,3.861469682E-3,-9.320789250E-4
3.110634997E0,3.994623839E-4,4.926702939E-3,-9.320789250E-4
3.112643591E0,3.595161485E-3,3.861469682E-3,-9.320789250E-4
3.114652184E0,1.464695437E-3,3.861469682E-3,1.331541280E-4
3.116660778E0,1.464695437E-3,2.796236658E-3,1.331541280E-4
3.118669372E0,2.529928461E-3,1.731003635E-3,-9.320789250E-4
3.120677966E0,1.464695437E-3,5.991935730E-3,1.331541280E-4
3.122686559E0,1.464695437E-3,3.861469682E-3,1.331541280E-4
3.124695153E0,1.464695437E-3,4.926702939E-3,1.198387123E-3
3.126703747E0,1.464695437E-3,4.926702939E-3,1.331541280E-4
3.128712341E0,3.994623839E-4,3.861469682E-3,1.198387123E-3
3.130720934E0,1.464695437E-3,2.796236658E-3,-9.320789250E-4
3.132729528E0,-6.657706108E-4,-3.994623839E-4,1.331541280E-4
3.134738122E0,3.994623839E-4,-2.529928461E-3,1.331541280E-4
3.136746716E0,-1.731003635E-3,-4.660394508E-3,-9.320789250E-4
3.138755309E0,-1.731003635E-3,-5.725627299E-3,1.331541280E-4
3.140763903E0,-1.731003635E-3,-7.856093347E-3,1.331541280E-4
3.142772497E0,-2.796236658E-3,-7.856093347E-3,-9.320789250E-4
3.144781091E0,-2.796236658E-3,-9.986559860E-3,1.198387123E-3
3.146789684E0,-3.861469682E-3,-1.211702544E-2,-9.320789250E-4
3.148798278E0,-4.926702939E-3,-1.318225823E-2,-9.320789250E-4
3.150806872E0,-4.926702939E-3,-1.531272475E-2,-9.320789250E-4
3.152815466E0,-3.861469682E-3,-1.424749196E-2,1.331541280E-4
3.154824059E0,-2.796236658E-3,-1.531272475E-2,-9.320789250E-4
3.156832653E0,-4.926702939E-3,-1.318225823E-2,1.198387123E-3
3.158841247E0,-3.861469682E-3,-1.424749196E-2,-1.997311832E-3
3.160849841E0,-2.796236658E-3,-9.986559860E-3,-9.320789250E-4
3.162858434E0,-2.796236658E-3,-8.921326138E-3,1.331541280E-4
3.164867028E0,-2.796236658E-3,-8.921326138E-3,-9.320789250E-4
3.166875622E0,-4.926702939E-3,-6.790860556E-3,1.198387123E-3
3.168884216E0,-1.731003635E-3,-6.790860556E-3,-1.997311832E-3
3.170892809E0,-2.796236658E-3,-6.790860556E-3,1.331541280E-4
3.172901403E0,-1.731003635E-3,-4.660394508E-3,1.331541280E-4
3.174909997E0,-1.731003635E-3,-6.790860556E-3,1.198387123E-3
3.176918591E0,-2.796236658E-3,-5.725627299E-3,1.331541280E-4
3.178927184E0,-2.796236658E-3,-5.725627299E-3,1.198387123E-3
3.180935778E0,-2.796236658E-3,-7.856093347E-3,-9.320789250E-4
3.182944372E0,-6.657706108E-4,-6.790860556E-3,1.331541280E-4
3.184952966E0,-6.657706108E-4,-4.660394508E-3,-9.320789250E-4
3.186961559E0,-1.731003635E-3,-5.725627299E-3,1.331541280E-4
3.188970153E0,-1.731003635E-3,-5.725627299E-3,1.331541280E-4
3.190978747E0,-1.731003635E-3,-4.660394508E-3,1.331541280E-4
3.192987288E0,-1.731003635E-3,-3.595161485E-3,1.331541280E-4
3.194995830E0,-6.657706108E-4,-4.660394508E-3,-9.320789250E-4
3.197004372E0,-6.657706108E-4,-6.790860556E-3,-9.320789250E-4
3.199012913E0,-3.861469682E-3,-1.105179265E-2,1.331541280E-4
3.201021455E0,-2.796236658E-3,-8.921326138E-3,-9.320789250E-4
3.203029997E0,-3.861469682E-3,-9.986559860E-3,-9.320789250E-4
3.205038538E0,-3.861469682E-3,-9.986559860E-3,1.198387123E-3
3.207047080E0,-4.926702939E-3,-9.986559860E-3,1.331541280E-4
3.209055622E0,-6.657706108E-4,-8.921326138E-3,1.331541280E-4
3.211064163E0,-2.796236658E-3,-9.986559860E-3,1.331541280E-4
3.213072705E0,-3.861469682E-3,-1.211702544E-2,-1.997311832E-3
3.215081247E0,-3.861469682E-3,-1.211702544E-2,1.331541280E-4
3.217089788E0,-3.861469682E-3,-1.211702544E-2,-1.997311832E-3
3.219098330E0,-3.861469682E-3,-7.856093347E-3,-9.320789250E-4
3.221106872E0,-1.731003635E-3,-3.595161485E-3,1.331541280E-4
3.223115413E0,3.994623839E-4,2.796236658E-3,-9.320789250E-4
3.225123955E0,2.529928461E-3,5.991935730E-3,-9.320789250E-4
3.227132497E0,1.464695437E-3,4.926702939E-3,-9.320789250E-4
3.229141038E0,1.464695437E-3,6.657706108E-4,1.198387123E-3
3.231149580E0,3.994623839E-4,-5.725627299E-3,1.331541280E-4
3.233158122E0,-2.796236658E-3,-8.921326138E-3,-9.320789250E-4
3.235166663E0,-3.861469682E-3,-1.531272475E-2,-9.320789250E-4
3.237175205E0,-5.991935730E-3,-1.637795754E-2,1.331541280E-4
3.239183747E0,-7.057168987E-3,-1.850842312E-2,1.198387123E-3
3.241192288E0,-3.861469682E-3,-1.957365684E-2,1.331541280E-4
3.243200830E0,-3.861469682E-3,-1.211702544E-2,1.331541280E-4
3.245209372E0,-1.731003635E-3,-7.856093347E-3,-9.320789250E-4
3.247217913E0,-6.657706108E-4,-4.660394508E-3,-9.320789250E-4
3.249226455E0,-2.796236658E-3,-1.464695437E-3,-9.320789250E-4
3.251234997E0,1.464695437E-3,2.796236658E-3,1.331541280E-4
3.253243538E0,3.994623839E-4,4.926702939E-3,-9.320789250E-4
3.255252080E0,1.464695437E-3,4.926702939E-3,-9.320789250E-4
3.257260622E0,3.994623839E-4,4.926702939E-3,-9.320789250E-4
3.259269163E0,1.464695437E-3,-1.464695437E-3,-9.320789250E-4
3.261277705E0,-6.657706108E-4,-6.790860556E-3,-9.320789250E-4
3.263286247E0,-3.861469682E-3,-7.856093347E-3,-1.997311832E-3
3.265294841E0,-3.861469682E-3,-1.105179265E-2,-9.320789250E-4
3.267303434E0,-1.731003635E-3,-1.105179265E-2,1.198387123E-3
3.269312028E0,-1.731003635E-3,-2.529928461E-3,-9.320789250E-4
3.271320622E0,3.994623839E-4,2.796236658E-3,1.331541280E-4
3.273329216E0,3.595161485E-3,1.131810062E-2,-9.320789250E-4
3.275337809E0,5.725627299E-3,2.410089783E-2,-9.320789250E-4
3.277346403E0,1.105179265E-2,3.262276202E-2,1.331541280E-4
3.279354997E0,8.921326138E-3,3.475322574E-2,-9.320789250E-4
3.281363591E0,8.921326138E-3,3.368799388E-2,-9.320789250E-4
3.283372184E0,7.856093347E-3,2.516612969E-2,1.331541280E-4
3.285380778E0,6.790860556E-3,2.197043039E-2,-1.997311832E-3
3.287389372E0,4.660394508E-3,1.770949923E-2,-9.320789250E-4
3.289397966E0,5.725627299E-3,8.122402243E-3,-9.320789250E-4
3.291406559E0,1.464695437E-3,-3.994623839E-4,-1.997311832E-3
3.293415153E0,-3.861469682E-3,-2.529928461E-3,-9.320789250E-4
3.295423747E0,3.994623839E-4,-1.464695437E-3,-1.997311832E-3
3.297432341E0,3.994623839E-4,-1.464695437E-3,-9.320789250E-4
3.299440934E0,3.994623839E-4,-3.994623839E-4,-9.320789250E-4
3.301449528E0,3.994623839E-4,-1.464695437E-3,1.331541280E-4
3.303458122E0,3.994623839E-4,-3.994623839E-4,-9.320789250E-4
3.305466716E0,3.994623839E-4,4.926702939E-3,1.331541280E-4
3.307475309E0,3.595161485E-3,1.238333434E-2,-1.997311832E-3
3.309483903E0,6.790860556E-3,2.197043039E-2,1.331541280E-4
3.311492497E0,8.921326138E-3,3.049229458E-2,1.331541280E-4
3.313501091E0,1.105179265E-2,3.475322574E-2,-9.320789250E-4
3.315509684E0,1.211702544E-2,3.475322574E-2,1.331541280E-4
3.317518278E0,9.986559860E-3,2.942706272E-2,1.331541280E-4
3.319526872E0,6.790860556E-3,2.410089783E-2,1.331541280E-4
3.321535466E0,4.660394508E-3,1.877473295E-2,-1.997311832E-3
3.323544059E0,4.660394508E-3,1.344856713E-2,-9.320789250E-4
3.325552653E0,5.725627299E-3,8.122402243E-3,1.331541280E-4
3.327561247E0,2.529928461E-3,-2.529928461E-3,1.331541280E-4
3.329569841E0,-2.796236658E-3,-5.725627299E-3,-9.320789250E-4
3.331578434E0,-3.861469682E-3,-1.318225823E-2,1.198387123E-3
3.333587028E0,-5.991935730E-3,-1.637795754E-2,-9.320789250E-4
3.335595622E0,-8.122402243E-3,-6.790860556E-3,-9.320789250E-4
3.337604216E0,-2.796236658E-3,-7.856093347E-3,-9.320789250E-4
3.339612809E0,3.994623839E-4,-1.105179265E-2,-9.320789250E-4
3.341621403E0,-2.796236658E-3,-6.790860556E-3,-9.320789250E-4
3.343629997E0,1.464695437E-3,2.410089783E-2,-1.997311832E-3
3.345638591E0,1.531272475E-2,5.925358832E-2,-1.997311832E-3
3.347647184E0,2.489982173E-2,6.990591437E-2,-1.997311832E-3
3.349655778E0,2.170412242E-2,6.244928762E-2,-3.062544856E-3
3.351664372E0,1.531272475E-2,4.647079110E-2,1.331541280E-4
3.353672966E0,1.318225823E-2,2.410089783E-2,-9.320789250E-4
3.355681559E0,6.790860556E-3,-9.986559860E-3,1.331541280E-4
3.357690153E0,-2.796236658E-3,-2.703028731E-2,1.331541280E-4
3.359698747E0,-9.187635034E-3,-4.087831825E-2,-9.320789250E-4
3.361707341E0,-1.344856713E-2,-4.833494872E-2,1.198387123E-3
3.363715934E0,-1.770949923E-2,-5.153064802E-2,1.331541280E-4
3.365724528E0,-1.451379992E-2,-5.579157919E-2,1.331541280E-4
3.367733122E0,-1.451379992E-2,-6.324820966E-2,1.331541280E-4
3.369741716E0,-1.557903271E-2,-6.324820966E-2,1.331541280E-4
3.371750309E0,-1.557903271E-2,-5.579157919E-2,1.331541280E-4
3.373758903E0,-5.991935730E-3,-2.170412242E-2,-1.997311832E-3
3.375767497E0,1.211702544E-2,1.238333434E-2,-3.062544856E-3
3.377776091E0,1.744319126E-2,2.729659714E-2,-9.320789250E-4
3.379784684E0,1.531272475E-2,1.451379992E-2,1.331541280E-4
3.381793278E0,7.856093347E-3,-8.921326138E-3,1.198387123E-3
3.383801872E0,-1.731003635E-3,-2.809552103E-2,1.198387123E-3
3.385810466E0,-1.131810062E-2,-3.235645220E-2,2.263620263E-3
3.387819059E0,-1.664426550E-2,-1.744319126E-2,3.328853287E-3
3.389827653E0,-5.991935730E-3,-2.063889056E-2,2.263620263E-3
3.391836247E0,3.994623839E-4,-2.383458801E-2,1.198387123E-3
3.393844841E0,8.921326138E-3,-6.790860556E-3,-4.127778113E-3
3.395853434E0,9.986559860E-3,-3.994623839E-4,-3.062544856E-3
3.397862028E0,5.725627299E-3,-1.211702544E-2,1.198387123E-3
3.399870622E0,-9.187635034E-3,-3.448691964E-2,1.198387123E-3
3.401879216E0,-1.664426550E-2,-5.579157919E-2,1.198387123E-3
3.403887809E0,-2.090519853E-2,-7.496577501E-2,1.331541280E-4
3.405896403E0,-2.303566411E-2,-8.561810106E-2,-9.320789250E-4
3.407904997E0,-2.410089783E-2,-9.094426781E-2,1.331541280E-4
3.409913591E0,-2.090519853E-2,-8.668334037E-2,3.328853287E-3
3.411922184E0,-1.664426550E-2,-7.390054315E-2,6.524552125E-3
3.413930726E0,-1.238333434E-2,-5.366111174E-2,1.398118306E-2
3.415939268E0,-2.796236658E-3,-3.235645220E-2,2.037258074E-2
3.417947809E0,5.725627299E-3,-8.921326138E-3,3.315537795E-2
3.419956351E0,1.318225823E-2,7.057168987E-3,5.019910634E-2
3.421964893E0,1.957365684E-2,2.197043039E-2,6.830807030E-2
3.423973434E0,2.809552103E-2,2.942706272E-2,8.109086752E-2
3.425981976E0,4.087831825E-2,2.836182900E-2,9.174319357E-2
3.427990518E0,4.620448127E-2,2.303566411E-2,1.013302878E-1
3.429999059E0,4.726971686E-2,1.731003635E-3,1.087869257E-1
3.432007601E0,4.087831825E-2,-2.703028731E-2,1.183740199E-1
3.434016143E0,3.129122034E-2,-5.366111174E-2,1.300915778E-1
3.436024684E0,2.596505545E-2,-6.750914454E-2,1.407439113E-1
3.438033226E0,3.022598661E-2,-8.135717362E-2,1.439396143E-1
3.440041768E0,4.513924941E-2,-7.177007198E-2,1.428743750E-1
3.442050309E0,6.431344151E-2,-4.940018058E-2,1.396786869E-1
3.444059163E0,8.987903595E-2,-3.342168778E-2,1.332872808E-1
3.446067966E0,1.090532318E-1,-1.531272475E-2,1.300915778E-1
3.448072757E0,1.175750941E-1,-5.725627299E-3,1.279611140E-1
3.450077549E0,1.229012609E-1,-1.105179265E-2,1.268958896E-1
3.452082757E0,1.186403260E-1,-2.383458801E-2,1.247654185E-1
3.454088747E0,1.122489274E-1,-3.022598661E-2,1.237001866E-1
3.456094945E0,1.069227681E-1,-3.555215150E-2,1.215697154E-1
3.458101143E0,1.026618332E-1,-4.513924941E-2,1.194392517E-1
3.460108122E0,1.005313694E-1,-4.194355011E-2,1.183740199E-1
3.462115934E0,9.840089828E-2,-3.661738336E-2,1.130478531E-1
3.464124580E0,9.946613014E-2,-3.235645220E-2,1.055912226E-1
3.466134007E0,1.037270650E-1,-3.235645220E-2,1.002650559E-1
3.468144163E0,1.026618332E-1,-2.596505545E-2,9.706936032E-2
3.470154945E0,1.047922969E-1,-1.211702544E-2,9.067796171E-2
3.472166247E0,1.111836955E-1,4.926702939E-3,7.896039635E-2
3.474177966E0,1.229012609E-1,1.238333434E-2,6.404713541E-2
3.476189945E0,1.292926520E-1,2.090519853E-2,5.019910634E-2
3.478202028E0,1.314231306E-1,2.623136342E-2,3.422060981E-2
3.480213799E0,1.324883550E-1,3.155753016E-2,1.824211515E-2
3.482222341E0,1.314231306E-1,3.581846133E-2,4.394086078E-3
3.484230882E0,1.303578913E-1,3.581846133E-2,-9.453942999E-3
3.486239424E0,1.303578913E-1,4.220985994E-2,-2.117150649E-2
3.488247966E0,1.314231306E-1,4.753602296E-2,-3.182383627E-2
3.490256507E0,1.303578913E-1,6.990591437E-2,-4.886756465E-2
3.492265049E0,1.346188188E-1,8.908011019E-2,-6.484606117E-2
3.494273591E0,1.442059278E-1,9.973244369E-2,-8.082455397E-2
3.496282132E0,1.495320797E-1,1.082543060E-1,-9.360735118E-2
3.498290674E0,1.559234858E-1,1.189066395E-1,-1.042596847E-1
3.500299216E0,1.623148769E-1,1.199718714E-1,-1.117163152E-1
3.502307757E0,1.697715074E-1,1.189066395E-1,-1.138467789E-1
3.504316299E0,1.761629134E-1,1.082543060E-1,-1.127815470E-1
3.506324841E0,1.804238409E-1,9.760197252E-2,-1.106510833E-1
3.508333382E0,1.846847683E-1,8.908011019E-2,-1.042596847E-1
3.510341924E0,1.889457107E-1,8.162347972E-2,-9.893351793E-2
3.512350466E0,1.964023411E-1,7.736254483E-2,-9.147688746E-2
3.514359007E0,2.081198990E-1,7.097115368E-2,-8.188978583E-2
3.516367549E0,2.198374718E-1,6.990591437E-2,-6.910699606E-2
3.518376091E0,2.326202542E-1,6.777545065E-2,-5.525896326E-2
3.520384632E0,2.432725877E-1,6.671021879E-2,-4.034570232E-2
3.522393174E0,2.603163123E-1,6.351451576E-2,-2.330197208E-2
3.524401716E0,2.773600519E-1,5.712312087E-2,-3.062544856E-3
3.526410257E0,2.890776098E-1,5.925358832E-2,2.143781446E-2
3.528418799E0,3.018604219E-1,6.564498693E-2,4.700340703E-2
3.530427341E0,3.189041317E-1,7.523208112E-2,7.363422960E-2
3.532435882E0,3.455349505E-1,8.588441461E-2,1.023955271E-1
3.534444424E0,3.711005449E-1,9.653674066E-2,1.290263534E-1
3.536452966E0,3.987966180E-1,1.050586104E-1,1.535267085E-1
3.538461507E0,4.275579154E-1,1.178414002E-1,1.758965999E-1
3.540470049E0,4.616453648E-1,1.316894293E-1,1.972012669E-1
3.542478591E0,4.978632927E-1,1.423417628E-1,2.174406946E-1
3.544487132E0,5.319507122E-1,1.519288570E-1,2.355496585E-1
3.546495674E0,5.649729371E-1,1.593854874E-1,2.515281439E-1
3.548504216E0,5.969299674E-1,1.636464298E-1,2.685718834E-1
3.550512757E0,6.267564893E-1,1.572550237E-1,2.845503688E-1
3.552521299E0,6.608439088E-1,1.391460598E-1,2.983984053E-1
3.554529893E0,6.949313879E-1,1.167761683E-1,3.122464418E-1
3.556538486E0,7.279536128E-1,8.908011019E-2,3.207682967E-1
3.558547080E0,7.577801347E-1,5.925358832E-2,3.314206302E-1
3.560555674E0,7.886719108E-1,3.049229458E-2,3.324858546E-1
3.562564268E0,8.184984326E-1,2.796236658E-3,3.335510790E-1
3.564572861E0,8.483249545E-1,-1.850842312E-2,3.314206302E-1
3.566581455E0,8.781514764E-1,-3.129122034E-2,3.260944486E-1
3.568590049E0,9.111737013E-1,-4.300878197E-2,3.165073693E-1
3.570598643E0,9.464595318E-1,-5.153064802E-2,3.069202602E-1
3.572607236E0,9.805470109E-1,-5.685681105E-2,2.952027023E-1
3.574615830E0,1.010373473E0,-6.218297780E-2,2.813546658E-1
3.576624424E0,1.037004352E0,-6.750914454E-2,2.664414048E-1
3.578633018E0,1.062569976E0,-6.857437640E-2,2.493976802E-1
3.580641611E0,1.087070346E0,-6.537867337E-2,2.312887162E-1
3.582650205E0,1.105179310E0,-5.685681105E-2,2.110492885E-1
3.584658799E0,1.125418663E0,-4.620448127E-2,1.908098608E-1
3.586667393E0,1.149919033E0,-3.555215150E-2,1.727008969E-1
3.588675986E0,1.177615166E0,-2.383458801E-2,1.535267085E-1
3.590684580E0,1.209572077E0,-7.856093347E-3,1.364829838E-1
3.592693174E0,1.238333344E0,5.991935730E-3,1.215697154E-1
3.594701768E0,1.267094731E0,2.303566411E-2,1.087869257E-1
3.596710361E0,1.286268830E0,4.327509180E-2,9.706936032E-2
3.598718955E0,1.306508303E0,6.138405204E-2,8.535179496E-2
3.600727549E0,1.335269570E0,6.990591437E-2,7.363422960E-2
3.602736143E0,1.368291855E0,7.203638554E-2,6.191666797E-2
3.604744736E0,1.394922614E0,7.629731297E-2,4.913387448E-2
3.606753330E0,1.422618747E0,8.055824786E-2,3.848154470E-2
3.608761924E0,1.448184252E0,8.055824786E-2,2.782921307E-2
3.610770518E0,1.471619368E0,7.736254483E-2,1.611164957E-2
3.612779111E0,1.491858840E0,7.310161740E-2,6.524552125E-3
3.614787705E0,1.515293956E0,6.351451576E-2,-5.193010904E-3
3.616796299E0,1.544055223E0,4.540555924E-2,-1.371487509E-2
3.618804893E0,1.571751356E0,3.688369319E-2,-2.543243766E-2
3.620813486E0,1.597316861E0,2.942706272E-2,-3.608476743E-2
3.622822080E0,1.623947740E0,2.623136342E-2,-4.780233279E-2
3.624830674E0,1.654839516E0,2.303566411E-2,-5.845466256E-2
3.626839268E0,1.684666038E0,2.836182900E-2,-7.017222792E-2
3.628847861E0,1.711296797E0,3.262276202E-2,-8.295502514E-2
3.630856455E0,1.744319081E0,3.262276202E-2,-9.467258304E-2
3.632865049E0,1.779471755E0,3.262276202E-2,-1.053249165E-1
3.634873643E0,1.805037379E0,4.434032366E-2,-1.138467789E-1
3.636882236E0,1.835929155E0,4.966649041E-2,-1.181077138E-1
3.638890830E0,1.872147083E0,4.966649041E-2,-1.255643368E-1
3.640899424E0,1.887060285E0,8.588441461E-2,-1.308905035E-1
3.642908018E0,1.898777843E0,1.189066395E-1,-1.330209672E-1
3.644916611E0,1.929669619E0,1.189066395E-1,-1.394123733E-1
3.646925205E0,1.957365632E0,1.103847697E-1,-1.436733007E-1
3.648933799E0,1.978670359E0,1.018629074E-1,-1.489994675E-1
3.650942393E0,1.995714068E0,7.523208112E-2,-1.532603949E-1
3.652950986E0,2.018084049E0,4.540555924E-2,-1.596518010E-1
3.654959580E0,2.048975706E0,1.451379992E-2,-1.649779677E-1
3.656968174E0,2.079867363E0,-1.318225823E-2,-1.671084315E-1
3.658976768E0,2.103302717E0,-3.342168778E-2,-1.713693589E-1
3.660985361E0,2.112889767E0,-4.300878197E-2,-1.724345982E-1
3.662993955E0,2.128868103E0,-3.874785081E-2,-1.745650619E-1
3.665002549E0,2.151238203E0,-3.661738336E-2,-1.734998226E-1
3.667011143E0,2.177868843E0,-4.300878197E-2,-1.724345982E-1
3.669019736E0,2.200238705E0,-4.940018058E-2,-1.734998226E-1
3.671028330E0,2.225804329E0,-5.472634733E-2,-1.734998226E-1
3.673036924E0,2.243913412E0,-4.513924941E-2,-1.756303012E-1
3.675045518E0,2.246043921E0,-3.235645220E-2,-1.724345982E-1
3.677054111E0,2.250304699E0,-1.531272475E-2,-1.756303012E-1
3.679062705E0,2.270544291E0,-1.318225823E-2,-1.788259894E-1
3.681071299E0,2.302501202E0,-2.276935615E-2,-1.862826198E-1
3.683079893E0,2.340849638E0,-4.940018058E-2,-1.862826198E-1
3.685088486E0,2.339784384E0,-6.963960826E-2,-1.862826198E-1
3.687097080E0,2.304631710E0,-7.177007198E-2,-1.820216924E-1
3.689105674E0,2.296109676E0,-6.537867337E-2,-1.756303012E-1
3.691114268E0,2.324871063E0,-6.218297780E-2,-1.756303012E-1
3.693122861E0,2.363219500E0,-6.750914454E-2,-1.745650619E-1
3.695131455E0,2.393045902E0,-7.816147059E-2,-1.692388952E-1
3.697140049E0,2.403698206E0,-9.094426781E-2,-1.639127284E-1
3.699148643E0,2.411154985E0,-1.239664927E-1,-1.564560980E-1
3.701157236E0,2.415415764E0,-1.825543046E-1,-1.447385401E-1
3.703165830E0,2.417546272E0,-2.432725877E-1,-1.308905035E-1
3.705174372E0,2.425003052E0,-2.837514579E-1,-1.170424819E-1
3.707182913E0,2.444177151E0,-2.986647189E-1,-1.031944528E-1
3.709191455E0,2.470808029E0,-2.997299433E-1,-8.721595258E-2
3.711199997E0,2.475069046E0,-2.869471312E-1,-7.443315536E-2
3.713208538E0,2.465481758E0,-2.560553849E-1,-6.484606117E-2
3.715217080E0,2.480395079E0,-2.145113051E-1,-5.525896326E-2
3.717225622E0,2.475069046E0,-1.420754492E-1,-4.354140162E-2
3.719234163E0,2.474003792E0,-9.413997084E-2,-3.501953557E-2
3.721242705E0,2.514482498E0,-1.058575287E-1,-2.543243766E-2
3.723251247E0,2.542178631E0,-1.101184636E-1,-1.478010789E-2
3.725259788E0,2.552830935E0,-9.627043456E-2,1.331541280E-4
3.727268330E0,2.549635172E0,-7.070484012E-2,1.291595027E-2
3.729276872E0,2.578396559E0,-8.668334037E-2,2.995967865E-2
3.731285413E0,2.595440149E0,-8.135717362E-2,4.487293959E-2
3.733293955E0,2.596505404E0,-6.005251035E-2,5.765573680E-2
3.735302497E0,2.643375635E0,-9.413997084E-2,6.830807030E-2
3.737311038E0,2.662549973E0,-9.200949967E-2,8.322133124E-2
3.739319580E0,2.636984348E0,-5.472634733E-2,9.813459218E-2
3.741328122E0,2.648701906E0,-7.390054315E-2,1.119826213E-1
3.743336663E0,2.676398039E0,-1.079879999E-1,1.237001866E-1
3.745345205E0,2.676398039E0,-1.101184636E-1,1.332872808E-1
3.747353747E0,2.704093933E0,-1.463363916E-1,1.450048387E-1
3.749362288E0,2.704093933E0,-1.474016160E-1,1.599181145E-1
3.751370830E0,2.721137762E0,-1.750976741E-1,1.758965999E-1
3.753379372E0,2.746703386E0,-1.995980442E-1,1.844184697E-1
3.755387913E0,2.746703386E0,-1.964023411E-1,2.003969699E-1
3.757396455E0,2.761616707E0,-2.091851383E-1,2.238320857E-1
3.759404997E0,2.777595043E0,-2.113156021E-1,2.387453467E-1
3.761413538E0,2.793573618E0,-1.942718774E-1,2.579195499E-1
3.763422080E0,2.817008734E0,-1.772281379E-1,2.643109560E-1
3.765430622E0,2.838313341E0,-1.484668553E-1,2.643109560E-1
3.767439163E0,2.867074728E0,-1.218360290E-1,2.632457018E-1
3.769447705E0,2.893705606E0,-9.413997084E-2,2.568543255E-1
3.771456247E0,2.919270992E0,-7.390054315E-2,2.472672164E-1
3.773464788E0,2.937380075E0,-5.792204663E-2,2.355496585E-1
3.775473330E0,2.953358650E0,-3.661738336E-2,2.270277888E-1
3.777481924E0,2.969336987E0,-2.276935615E-2,2.163754553E-1
3.779490518E0,2.988511324E0,-9.986559860E-3,1.993317306E-1
3.781499111E0,3.007685423E0,1.731003635E-3,1.748313755E-1
3.783507705E0,3.027924776E0,7.057168987E-3,1.567224115E-1
3.785516299E0,3.042838097E0,1.983996481E-2,1.439396143E-1
3.787524893E0,3.053490400E0,3.049229458E-2,1.396786869E-1
3.789533486E0,3.058816671E0,3.794892505E-2,1.567224115E-1
3.791542080E0,3.059881926E0,3.688369319E-2,1.854836941E-1
3.793550674E0,3.059881926E0,2.410089783E-2,2.046578974E-1
3.795559268E0,3.056686163E0,9.187635034E-3,2.174406946E-1
3.797567861E0,3.053490400E0,-1.637795754E-2,2.153102309E-1
3.799576455E0,3.049229622E0,-4.833494872E-2,2.003969699E-1
3.801585049E0,3.039642334E0,-7.922670245E-2,1.822880059E-1
3.803593643E0,3.032185793E0,-1.165098622E-1,1.567224115E-1
3.805602236E0,3.021533489E0,-1.537930220E-1,1.322220564E-1
3.807610830E0,3.017272472E0,-1.932066381E-1,1.013302878E-1
3.809619424E0,3.008750677E0,-2.294245660E-1,6.937330216E-2
3.811628018E0,3.000228882E0,-2.677729428E-1,3.954677656E-2
3.813636611E0,2.988511324E0,-3.007951677E-1,1.185071748E-2
3.815645205E0,2.977859020E0,-3.306216896E-1,-1.691057347E-2
3.817653799E0,2.968271732E0,-3.615134656E-1,-3.715000302E-2
3.819662393E0,2.955488920E0,-3.892095089E-1,-6.271559745E-2
3.821670986E0,2.941641092E0,-4.158403277E-1,-9.254211932E-2
3.823679580E0,2.929923534E0,-4.414059222E-1,-1.234338731E-1
3.825688174E0,2.921401501E0,-4.648410678E-1,-1.617822647E-1
3.827696768E0,2.913944960E0,-4.893414080E-1,-2.150439173E-1
3.829705361E0,2.899031639E0,-4.989285171E-1,-2.619141638E-1
3.831713955E0,2.886248827E0,-5.159722567E-1,-3.023930192E-1
3.833722549E0,2.890509844E0,-5.436683297E-1,-3.375457227E-1
3.835731143E0,2.873466015E0,-5.351464152E-1,-3.641765416E-1
3.837739736E0,2.869205236E0,-5.351464152E-1,-3.897421360E-1
3.839748330E0,2.874531269E0,-5.340812206E-1,-4.185034335E-1
3.841756924E0,2.881988049E0,-5.191679597E-1,-4.461994767E-1
3.843765518E0,2.895835876E0,-4.999937415E-1,-4.653736651E-1
3.845774111E0,2.891575098E0,-4.552539587E-1,-4.792217016E-1
3.847782705E0,2.909683943E0,-4.382102489E-1,-4.888088107E-1
3.849791299E0,2.923532009E0,-4.051880240E-1,-4.909392595E-1
3.851799893E0,2.913944960E0,-3.529915810E-1,-4.866783321E-1
3.853808486E0,2.945901871E0,-3.529915810E-1,-4.824174047E-1
3.855817080E0,2.943771362E0,-3.071865737E-1,-4.717650712E-1
3.857825674E0,2.961880445E0,-2.922733128E-1,-4.579170346E-1
3.859834268E0,2.989576578E0,-2.848166823E-1,-4.376776218E-1
3.861842861E0,2.991706848E0,-2.326202542E-1,-4.206338823E-1
3.863851455E0,3.004489660E0,-1.985328048E-1,-4.035901725E-1
3.865860049E0,3.018337727E0,-1.623148769E-1,-3.844159544E-1
3.867868643E0,3.038577318E0,-1.314231306E-1,-3.705679476E-1
3.869877236E0,3.067338467E0,-9.733566642E-2,-3.652417660E-1
3.871885830E0,3.085447550E0,-4.300878197E-2,-3.577851355E-1
3.873894424E0,3.107817411E0,8.122402243E-3,-3.503285050E-1
3.875903018E0,3.118469715E0,5.818835273E-2,-3.386109471E-1
3.877911611E0,3.118469715E0,1.178414002E-1,-3.279586136E-1
3.879920205E0,3.134448290E0,1.508636326E-1,-3.162410557E-1
3.881928799E0,3.155752897E0,1.679073572E-1,-2.991973162E-1
3.883937393E0,3.152557135E0,2.105166763E-1,-2.832188308E-1
3.885945986E0,3.140839577E0,2.531259954E-1,-2.651098669E-1
3.887954580E0,3.152557135E0,2.456693649E-1,-2.448704392E-1
3.889963174E0,3.145100594E0,2.659088075E-1,-2.278267145E-1
3.891971768E0,3.111012936E0,2.904091477E-1,-2.086525112E-1
3.893980361E0,3.100360632E0,2.776263654E-1,-1.862826198E-1
3.895988955E0,3.071599483E0,2.701697350E-1,-1.671084315E-1
3.897997549E0,3.035381556E0,2.563216984E-1,-1.404775977E-1
3.900006143E0,3.002359390E0,2.328865677E-1,-1.159772426E-1
3.902014736E0,2.959749937E0,2.073209733E-1,-8.934641629E-2
3.904023330E0,2.911814451E0,1.774944514E-1,-6.591129303E-2
3.906031924E0,2.867074728E0,1.444722265E-1,-4.886756465E-2
3.908040518E0,2.819139242E0,1.135804728E-1,-4.034570232E-2
3.910049111E0,2.775464535E0,7.097115368E-2,-4.141093418E-2
3.912057705E0,2.731790066E0,2.942706272E-2,-4.247616604E-2
3.914066299E0,2.684919834E0,-1.211702544E-2,-4.567186534E-2
3.916074893E0,2.645506144E0,-5.792204663E-2,-5.206326395E-2
3.918083486E0,2.607157707E0,-1.026618332E-1,-6.058513001E-2
3.920092080E0,2.568809509E0,-1.452711523E-1,-7.017222792E-2
3.922100674E0,2.536852360E0,-1.857500076E-1,-8.188978583E-2
3.924109268E0,2.503830194E0,-2.219679356E-1,-9.467258304E-2
3.926117861E0,2.475069046E0,-2.528596818E-1,-1.063901484E-1
3.928126403E0,2.453764200E0,-2.784252763E-1,-1.202381775E-1
3.930134945E0,2.433524847E0,-2.997299433E-1,-1.330209672E-1
3.932143486E0,2.414350748E0,-3.327521682E-1,-1.617822647E-1
3.934152028E0,2.406893969E0,-3.657743931E-1,-2.022611201E-1
3.936160570E0,2.396241665E0,-3.934704363E-1,-2.459356785E-1
3.938169111E0,2.395176411E0,-4.243622124E-1,-2.842840552E-1
3.940177653E0,2.402633190E0,-4.541887343E-1,-3.215672076E-1
3.942186195E0,2.401567936E0,-4.648410678E-1,-3.556546867E-1
3.944194736E0,2.425003052E0,-4.989285171E-1,-3.822855055E-1
3.946203278E0,2.428198576E0,-4.957328141E-1,-3.993292153E-1
3.948211820E0,2.396241665E0,-4.627105892E-1,-4.078511000E-1
3.950220361E0,2.417546272E0,-4.978632927E-1,-4.185034335E-1
3.952228903E0,2.444177151E0,-5.351464152E-1,-4.323514402E-1
3.954237445E0,2.454829454E0,-5.394073725E-1,-4.408733249E-1
3.956245986E0,2.436720610E0,-5.117112994E-1,-4.440690279E-1
3.958254528E0,2.463351250E0,-5.404726267E-1,-4.461994767E-1
3.960263070E0,2.512351990E0,-5.713643432E-1,-4.440690279E-1
3.962271611E0,2.471873283E0,-4.776238501E-1,-4.355471432E-1
3.964280153E0,2.474003792E0,-4.509930313E-1,-4.216991365E-1
3.966288695E0,2.508091211E0,-4.605801404E-1,-4.142425060E-1
3.968297236E0,2.519808769E0,-4.339492917E-1,-4.067858756E-1
3.970305778E0,2.531526327E0,-4.073184729E-1,-3.971987665E-1
3.972314320E0,2.552830935E0,-3.828181326E-1,-3.897421360E-1
3.974322861E0,2.572005033E0,-3.455349505E-1,-3.748288751E-1
3.976331403E0,2.548569918E0,-2.581858635E-1,-3.599156141E-1
3.978339945E0,2.565613747E0,-2.251636237E-1,-3.428718746E-1
3.980348486E0,2.595440149E0,-2.049241960E-1,-3.290238380E-1
3.982357028E0,2.594375134E0,-1.378145218E-1,-3.109148741E-1
3.984365570E0,2.589048862E0,-7.603100687E-2,-2.928059399E-1
3.986374111E0,2.575200796E0,-9.986559860E-3,-2.725664973E-1
3.988382653E0,2.550700426E0,5.073172227E-2,-2.491313666E-1
3.990391195E0,2.546439648E0,8.375394344E-2,-2.278267145E-1
3.992399736E0,2.543243885E0,1.029281393E-1,-2.065220475E-1
3.994408278E0,2.520874023E0,1.466026902E-1,-1.873478591E-1
3.996416820E0,2.482525587E0,1.977338791E-1,-1.681736708E-1
3.998425361E0,2.461220980E0,2.062557489E-1,-1.489994675E-1
4.000433955E0,2.431394339E0,2.179733068E-1,-1.319557428E-1
4.002442549E0,2.382393599E0,2.360822707E-1,-1.127815470E-1
4.004451143E0,2.344045162E0,2.318213433E-1,-9.786828607E-2
4.006459736E0,2.300370693E0,2.179733068E-1,-8.934641629E-2
4.008468330E0,2.252435207E0,2.009295821E-1,-8.828118443E-2
4.010476924E0,2.189586401E0,1.604507267E-1,-8.082455397E-2
4.012485518E0,2.090519905E0,6.777545065E-2,-5.951989442E-2
4.014494111E0,2.014888287E0,-1.318225823E-2,-3.928046674E-2
4.016502705E0,1.985061765E0,-3.342168778E-2,-2.862813696E-2
4.018511299E0,1.953104734E0,-4.194355011E-2,-2.117150649E-2
4.020519893E0,1.885995030E0,-6.111774594E-2,-1.158440951E-2
4.022528486E0,1.861494660E0,-3.981308267E-2,-4.127778113E-3
4.024537080E0,1.885995030E0,-9.986559860E-3,-4.127778113E-3
4.026545674E0,1.887060285E0,-1.637795754E-2,-1.997311832E-3
4.028554268E0,1.892386436E0,-2.703028731E-2,3.328853287E-3
4.030562861E0,1.898777843E0,-3.448691964E-2,9.720250964E-3
4.032571455E0,1.893451691E0,-3.448691964E-2,2.143781446E-2
4.034580049E0,1.888125539E0,-2.383458801E-2,3.315537795E-2
4.036588643E0,1.888125539E0,-1.211702544E-2,4.487293959E-2
4.038597236E0,1.879603624E0,-6.790860556E-3,5.659050494E-2
4.040605830E0,1.868951321E0,-2.529928461E-3,6.724283099E-2
4.042614424E0,1.864690423E0,-4.660394508E-3,7.363422960E-2
4.044623018E0,1.855103254E0,-7.856093347E-3,7.576470077E-2
4.046631611E0,1.845516205E0,-1.211702544E-2,7.576470077E-2
4.048640205E0,1.834863901E0,-1.211702544E-2,7.576470077E-2
4.050648799E0,1.823146343E0,-4.660394508E-3,7.576470077E-2
4.052657393E0,1.810363531E0,5.991935730E-3,7.256899774E-2
4.054665986E0,1.798645973E0,1.025286783E-2,6.937330216E-2
4.056674580E0,1.789058805E0,1.451379992E-2,6.511236727E-2
4.058683174E0,1.781602263E0,2.090519853E-2,6.404713541E-2
4.060691768E0,1.772015095E0,3.368799388E-2,6.298190355E-2
4.062700361E0,1.760297537E0,4.540555924E-2,6.191666797E-2
4.064708955E0,1.747514725E0,6.244928762E-2,6.298190355E-2
4.066717549E0,1.731536269E0,8.801487833E-2,6.617759913E-2
4.068726143E0,1.714492559E0,1.135804728E-1,7.150376588E-2
4.070734736E0,1.699579239E0,1.412765235E-1,7.789516449E-2
4.072743330E0,1.682535529E0,1.679073572E-1,8.428656310E-2
